nr,fusedX,fusedY,fusedZ,gyroX,gyroY,gyroZ,accX,accY,accZ,q,w,e,r,t,z,u,i,o,p,a,s,d,f,g,h,j,k,l,y,x
0,0.7663283,-0.80545026,0.208163,-0.2187454,-0.33449304,-0.05725796,-0.7471406,1.4252982,0.09262568,0,0,0,0,0,0,0,0,0,0,0,0,0,0,0,0,0,0,0,0,0
1,0.7644263,-0.80451167,0.19784501,0.006025402,-0.33768883,-0.007190535,-0.5638345,1.6992847,-0.5719149,0,0,0,0,0,0,0,0,0,0,0,0,0,0,0,0,0,0,0,0,0
2,0.76495093,-0.8093043,0.19516973,0.111486584,-0.14274544,-0.1190433,-0.31648353,1.7670705,-0.5081693,0,0,0,0,0,0,0,0,0,0,0,0,0,0,0,0,0,0,0,0,0
3,0.76921564,-0.81810224,0.18799613,0.33093104,-0.48576057,-0.10519486,-0.17283143,1.4929343,0.31663316,0,0,0,0,0,0,0,0,0,0,0,0,0,0,0,0,0,0,0,0,0
4,0.76719564,-0.8277067,0.18052931,0.4406533,-0.7339672,-0.25646242,0.38561612,1.3684359,-0.2347814,0,0,0,0,0,0,0,0,0,0,0,0,0,0,0,0,0,0,0,0,0
5,0.77837676,-0.83626723,0.17312014,0.03691807,-0.32810146,-0.41412154,0.6362591,0.49724576,-0.16295536,0,0,0,0,0,0,0,0,0,0,0,0,0,0,0,0,0,0,0,0,0
6,0.79706573,-0.83167094,0.17935394,0.05076651,-0.2545982,-0.32144353,-0.18136078,-0.16115971,0.83542675,0,0,0,0,0,0,0,0,0,0,0,0,0,0,0,0,0,0,0,0,0
7,0.8008355,-0.837915,0.16927952,0.28832048,-0.5336975,0.023702133,0.025737667,-0.8590695,-0.07796119,0,0,0,0,0,0,0,0,0,0,0,0,0,0,0,0,0,0,0,0,0
8,0.7849473,-0.8378714,0.1522553,-0.28585705,-0.18216021,0.11638014,0.59855044,-0.29987377,-1.4625579,0,0,0,0,0,0,0,0,0,0,0,0,0,0,0,0,0,0,0,0,0
9,0.77750474,-0.8227396,0.1501711,-1.0219548,0.008522116,0.16431704,-0.079008654,0.14664486,0.7353192,0,0,0,0,0,0,0,0,0,0,0,0,0,0,0,0,0,0,0,0,0
10,0.7439693,-0.79461116,0.12660387,-0.54152054,-0.32277513,0.31984565,1.0613796,0.49694648,0.54647654,0,0,0,0,0,0,0,0,0,0,0,0,0,0,0,0,0,0,0,0,0
11,0.71482974,-0.7926869,0.102982156,-0.032324117,-0.2961435,0.050333746,2.0669444,1.2223896,-0.83258367,0,0,0,0,0,0,0,0,0,0,0,0,0,0,0,0,0,0,0,0,0
12,0.70785123,-0.78686255,0.09429609,-0.31035814,-0.32384038,-0.21811289,1.3226469,0.34671032,0.32202014,0,0,0,0,0,0,0,0,0,0,0,0,0,0,0,0,0,0,0,0,0
13,0.7203096,-0.76528573,0.08246943,-0.55963004,-0.32490566,0.09614012,-0.52373165,-1.7037737,0.9825205,0,0,0,0,0,0,0,0,0,0,0,0,0,0,0,0,0,0,0,0,0
14,0.7095177,-0.7562049,0.07042382,-0.08558734,-0.7115966,-0.17337179,0.98102415,-1.2475287,1.5378257,0,0,0,0,0,0,0,0,0,0,0,0,0,0,0,0,0,0,0,0,0
15,0.7366804,-0.7563703,0.05645275,0.3415837,-0.79894835,-0.6516755,0.6075287,-0.9805752,1.7533039,0,0,0,0,0,0,0,0,0,0,0,0,0,0,0,0,0,0,0,0,0
16,0.77874035,-0.7691283,0.05934094,0.6963168,-0.48149952,-0.57284594,-0.84021515,-1.0512042,1.6584336,0,0,0,0,0,0,0,0,0,0,0,0,0,0,0,0,0,0,0,0,0
17,0.80666494,-0.7994188,0.069055334,1.0691593,-0.19174759,-0.3683152,-0.7333739,-1.4013562,0.25722703,0,0,0,0,0,0,0,0,0,0,0,0,0,0,0,0,0,0,0,0,0
18,0.81282836,-0.8147819,0.07520742,0.84332323,-0.18322548,-0.22237395,-0.786196,-0.59346277,-0.22849663,0,0,0,0,0,0,0,0,0,0,0,0,0,0,0,0,0,0,0,0,0
19,0.81861794,-0.8429482,0.076634146,0.7421231,-0.40586576,-0.39920783,0.36780924,-0.27623102,-0.8964789,0,0,0,0,0,0,0,0,0,0,0,0,0,0,0,0,0,0,0,0,0
20,0.8566492,-0.85555375,0.08538036,0.2787331,-0.6146576,-0.68682927,-1.1200374,-1.1971009,-0.14380173,0,0,0,0,0,0,0,0,0,0,0,0,0,0,0,0,0,0,0,0,0
21,0.8871734,-0.85785156,0.09955181,0.06568021,-0.025566347,0.0695085,-3.1585505,-1.054197,-0.76584524,0,0,0,0,0,0,0,0,0,0,0,0,0,0,0,0,0,0,0,0,0
22,0.8485657,-0.873439,0.07636079,0.5418534,-0.008522116,0.8002799,-0.5410896,-1.4565724,-1.7374423,0,0,0,0,0,0,0,0,0,0,0,0,0,0,0,0,0,0,0,0,0
23,0.8085607,-0.88862413,0.04899507,0.39378166,-1.0887003,0.7576693,1.1611878,0.66828156,-1.5650598,0,0,0,0,0,0,0,0,0,0,0,0,0,0,0,0,0,0,0,0,0
24,0.74017197,-0.89597493,-0.03527146,0.1349224,-1.2825783,0.35499936,3.0195372,0.5847838,-1.436521,0,0,0,0,0,0,0,0,0,0,0,0,0,0,0,0,0,0,0,0,0
25,0.7248921,-0.9060473,-0.055597637,0.12746555,-0.16405073,-0.43116578,1.2645874,-0.6839935,-2.2783823,0,0,0,0,0,0,0,0,0,0,0,0,0,0,0,0,0,0,0,0,0
26,0.7656416,-0.88907075,-0.02984461,-0.85683876,-0.3323625,-0.77311563,-0.8339304,-0.6025906,-0.5018845,0,0,0,0,0,0,0,0,0,0,0,0,0,0,0,0,0,0,0,0,0
27,0.7953806,-0.8612063,-0.005658517,-0.65443856,0.25033715,-0.38748994,-0.51565117,-0.847697,1.6265608,0,0,0,0,0,0,0,0,0,0,0,0,0,0,0,0,0,0,0,0,0
28,0.7973196,-0.8598404,0.009322865,-0.065347314,0.46125948,-0.49295112,0.20425533,0.24226329,0.07032967,0,0,0,0,0,0,0,0,0,0,0,0,0,0,0,0,0,0,0,0,0
29,0.82388055,-0.8578132,0.04467652,0.03691807,0.14274544,-0.73796195,0.15053543,0.06569091,-0.045340195,0,0,0,0,0,0,0,0,0,0,0,0,0,0,0,0,0,0,0,0,0
30,0.8580812,-0.8608331,0.072475985,0.16581507,-0.09054748,-0.5984123,-0.5342063,-0.24196401,-0.30630818,0,0,0,0,0,0,0,0,0,0,0,0,0,0,0,0,0,0,0,0,0
31,0.8756971,-0.8657337,0.08659356,0.22546987,-0.1075917,-0.50360376,0.55680156,-0.5511153,-0.1858499,0,0,0,0,0,0,0,0,0,0,0,0,0,0,0,0,0,0,0,0,0
32,0.8945607,-0.87023056,0.10337958,0.049701244,-0.12676647,-0.55473644,-1.0582372,-0.89573073,-1.3124714,0,0,0,0,0,0,0,0,0,0,0,0,0,0,0,0,0,0,0,0,0
33,0.918317,-0.858045,0.11947674,-0.38173085,-0.05965481,-0.54408383,0.047884032,-0.4930559,1.2841899,0,0,0,0,0,0,0,0,0,0,0,0,0,0,0,0,0,0,0,0,0
34,0.9498803,-0.848147,0.13594805,0.12107396,-0.19813919,-0.5632586,-0.19153613,-0.5481225,1.6947955,0,0,0,0,0,0,0,0,0,0,0,0,0,0,0,0,0,0,0,0,0
35,0.9743869,-0.8535465,0.15133426,0.15516242,-0.12250541,-0.5653891,-0.012120646,-0.38860887,-0.3616741,0,0,0,0,0,0,0,0,0,0,0,0,0,0,0,0,0,0,0,0,0
36,0.9965424,-0.8400044,0.17443134,-0.34977293,0.17576863,-0.61865234,0.59974754,-0.3302502,0.76345104,0,0,0,0,0,0,0,0,0,0,0,0,0,0,0,0,0,0,0,0,0
37,1.0186714,-0.82995886,0.1866375,-0.16015585,-0.0127831735,-0.8103999,0.10534488,-0.83422965,1.8384476,0,0,0,0,0,0,0,0,0,0,0,0,0,0,0,0,0,0,0,0,0
38,1.0632539,-0.81429213,0.22358339,-0.21768013,0.5869607,-0.71346086,-0.6512229,-0.974889,1.4746786,0,0,0,0,0,0,0,0,0,0,0,0,0,0,0,0,0,0,0,0,0
39,1.0996964,-0.79751676,0.2530626,-0.33698973,0.18961707,-0.6793724,0.8062474,-0.94645786,1.3829508,0,0,0,0,0,0,0,0,0,0,0,0,0,0,0,0,0,0,0,0,0
40,1.1558986,-0.7714422,0.28537604,-0.47973517,0.4303668,-0.8924253,0.91473466,-1.4856021,2.0278888,0,0,0,0,0,0,0,0,0,0,0,0,0,0,0,0,0,0,0,0,0
41,1.2050478,-0.7445558,0.30645645,-0.45097303,0.05539375,-0.68363345,0.29703066,-1.2749124,2.60968,0,0,0,0,0,0,0,0,0,0,0,0,0,0,0,0,0,0,0,0,0
42,1.2302103,-0.7353197,0.30965236,-0.07706522,0.080960095,-0.4098605,0.7757214,-0.74669164,2.2922986,0,0,0,0,0,0,0,0,0,0,0,0,0,0,0,0,0,0,0,0,0
43,1.2031959,-0.73288345,0.31453732,0.29258153,-0.033023197,-0.31185615,2.1728876,-0.37813422,1.3578117,0,0,0,0,0,0,0,0,0,0,0,0,0,0,0,0,0,0,0,0,0
44,1.2082843,-0.7398354,0.32678935,0.3032342,0.05326322,-0.48549426,1.4965256,-0.10519524,0.0362123,0,0,0,0,0,0,0,0,0,0,0,0,0,0,0,0,0,0,0,0,0
45,1.2273268,-0.7320338,0.35397542,-0.07493469,0.5805691,-0.5334312,0.7428011,-0.40342298,0.7413047,0,0,0,0,0,0,0,0,0,0,0,0,0,0,0,0,0,0,0,0,0
46,1.2518001,-0.73328483,0.38697028,0.33412686,0.41438785,-0.4301005,-0.22804771,-0.36541504,0.21712416,0,0,0,0,0,0,0,0,0,0,0,0,0,0,0,0,0,0,0,0,0
47,1.2672043,-0.7380355,0.40482202,0.2968426,0.26525083,-0.3470099,-1.38325,-0.5066729,-2.0334253,0,0,0,0,0,0,0,0,0,0,0,0,0,0,0,0,0,0,0,0,0
48,1.2855525,-0.73680496,0.43483195,-0.046172556,0.6018744,-0.1605886,-1.9666871,-0.24779987,-1.3221979,0,0,0,0,0,0,0,0,0,0,0,0,0,0,0,0,0,0,0,0,0
49,1.2906251,-0.7412735,0.45449227,0.28299415,0.15126754,0.2942793,-2.4958057,-0.11731588,-1.0317513,0,0,0,0,0,0,0,0,0,0,0,0,0,0,0,0,0,0,0,0,0
50,1.2811052,-0.75977075,0.4543423,0.2670152,-0.0777643,0.49028796,-1.8565538,0.7410054,-2.4132056,0,0,0,0,0,0,0,0,0,0,0,0,0,0,0,0,0,0,0,0,0
51,1.2736443,-0.76592577,0.45206025,0.06781074,-0.16618125,0.4561995,-1.802385,1.0812813,-1.0528502,0,0,0,0,0,0,0,0,0,0,0,0,0,0,0,0,0,0,0,0,0
52,1.2543563,-0.7792171,0.43428358,0.28938574,-0.41119206,0.65859973,-1.8323125,1.4272435,-0.5859809,0,0,0,0,0,0,0,0,0,0,0,0,0,0,0,0,0,0,0,0,0
53,1.222642,-0.8008992,0.40463677,0.3447795,-0.39947417,0.7555388,-0.7043442,1.5960348,-0.3859154,0,0,0,0,0,0,0,0,0,0,0,0,0,0,0,0,0,0,0,0,0
54,1.190577,-0.82469195,0.3762143,0.38206375,-0.35153726,0.64262074,-0.1249474,1.5685014,-0.9461586,0,0,0,0,0,0,0,0,0,0,0,0,0,0,0,0,0,0,0,0,0
55,1.1650438,-0.84263223,0.3598143,0.28832048,-0.05539375,0.53929013,-0.65032506,1.0223241,-0.9124901,0,0,0,0,0,0,0,0,0,0,0,0,0,0,0,0,0,0,0,0,0
56,1.14646,-0.8523527,0.3543012,0.3778027,0.17044231,0.55953014,-0.23148938,0.75985974,-0.24839842,0,0,0,0,0,0,0,0,0,0,0,0,0,0,0,0,0,0,0,0,0
57,1.1162728,-0.8749138,0.34648234,0.47154596,0.19707392,0.39441416,0.580145,0.8029554,-1.0169371,0,0,0,0,0,0,0,0,0,0,0,0,0,0,0,0,0,0,0,0,0
58,1.1017133,-0.89044994,0.3499624,0.20096879,0.16831177,-0.040213734,0.53704935,0.8125322,-0.97623575,0,0,0,0,0,0,0,0,0,0,0,0,0,0,0,0,0,0,0,0,0
59,1.1055467,-0.89068925,0.3562983,0.020939104,0.010652645,-0.15632756,-0.25423428,0.24420857,0.38322192,0,0,0,0,0,0,0,0,0,0,0,0,0,0,0,0,0,0,0,0,0
60,1.1088014,-0.88862616,0.37709725,-0.036585175,0.5752428,-0.17443705,-0.23867199,0.25857377,-0.020201078,0,0,0,0,0,0,0,0,0,0,0,0,0,0,0,0,0,0,0,0,0
61,1.109914,-0.88561606,0.39373437,-0.16974322,0.7339672,-0.20746025,-0.4329016,0.16205753,-0.109534726,0,0,0,0,0,0,0,0,0,0,0,0,0,0,0,0,0,0,0,0,0
62,1.117265,-0.8783639,0.41747168,0.040113863,0.257794,-0.1190433,-0.6914754,-0.03067571,0.7679402,0,0,0,0,0,0,0,0,0,0,0,0,0,0,0,0,0,0,0,0,0
63,1.1183157,-0.88503045,0.4268438,0.22120881,0.18322548,0.0695085,-0.06180033,-0.105494514,-0.44083238,0,0,0,0,0,0,0,0,0,0,0,0,0,0,0,0,0,0,0,0,0
64,1.1045239,-0.8890854,0.4240285,-0.041911498,0.083090626,0.22929817,0.5786486,0.10998364,0.023642741,0,0,0,0,0,0,0,0,0,0,0,0,0,0,0,0,0,0,0,0,0
65,1.0967313,-0.889033,0.4188819,0.0049601374,0.013848438,0.105727494,-0.06075287,0.0827496,0.74310035,0,0,0,0,0,0,0,0,0,0,0,0,0,0,0,0,0,0,0,0,0
66,1.0882672,-0.89309776,0.41684702,0.17753297,0.14807175,0.21544974,0.15233108,0.13542204,-0.100855745,0,0,0,0,0,0,0,0,0,0,0,0,0,0,0,0,0,0,0,0,0
67,1.0752702,-0.90408784,0.42060763,0.21694776,0.36751622,0.17496969,0.48796824,0.28266543,-0.9485528,0,0,0,0,0,0,0,0,0,0,0,0,0,0,0,0,0,0,0,0,0
68,1.0645742,-0.91892004,0.43070558,0.2851247,0.43569314,0.24847293,0.34192193,-0.020201078,-1.9613001,0,0,0,0,0,0,0,0,0,0,0,0,0,0,0,0,0,0,0,0,0
69,1.062171,-0.9312202,0.4447597,0.2158825,0.23542345,0.0396811,0.17178397,-0.15861586,-2.0148704,0,0,0,0,0,0,0,0,0,0,0,0,0,0,0,0,0,0,0,0,0
70,1.0585872,-0.93524855,0.44954658,0.064614944,0.19174759,-0.013582122,0.31902736,-0.42676646,-1.5252562,0,0,0,0,0,0,0,0,0,0,0,0,0,0,0,0,0,0,0,0,0
71,1.0614334,-0.93746704,0.46182105,6.9907977E-4,0.18322548,-0.059388492,-0.15143326,-0.25558102,-1.4115316,0,0,0,0,0,0,0,0,0,0,0,0,0,0,0,0,0,0,0,0,0
72,1.0608133,-0.9351688,0.46712747,-0.17506956,0.027696876,-0.019973708,-0.26800096,0.0062847794,-0.92491007,0,0,0,0,0,0,0,0,0,0,0,0,0,0,0,0,0,0,0,0,0
73,1.0534585,-0.9283821,0.45598555,-0.15909058,-0.28549087,0.027963191,0.006135142,0.12000936,0.65765727,0,0,0,0,0,0,0,0,0,0,0,0,0,0,0,0,0,0,0,0,0
74,1.0405389,-0.9295222,0.43948886,0.0070906663,-0.28442562,0.055660065,0.7694366,0.07182605,0.04878186,0,0,0,0,0,0,0,0,0,0,0,0,0,0,0,0,0,0,0,0,0
75,1.0254753,-0.9283923,0.4308916,-0.22194119,-0.16192019,-0.12863068,1.5200188,0.25139117,0.34925416,0,0,0,0,0,0,0,0,0,0,0,0,0,0,0,0,0,0,0,0,0
76,1.026276,-0.9145087,0.42199516,-0.31035814,-0.34301513,-0.28735507,0.82929164,0.066139825,1.5677532,0,0,0,0,0,0,0,0,0,0,0,0,0,0,0,0,0,0,0,0,0
77,1.0351163,-0.90072954,0.41548827,-0.20915802,-0.19387813,-0.16591494,-0.086490534,0.3645172,2.1200657,0,0,0,0,0,0,0,0,0,0,0,0,0,0,0,0,0,0,0,0,0
78,1.03543,-0.8973263,0.41284737,0.06781074,-0.05326322,0.0034621095,-0.18719664,0.73666596,1.4567221,0,0,0,0,0,0,0,0,0,0,0,0,0,0,0,0,0,0,0,0,0
79,1.0341934,-0.9061879,0.4138008,0.25849307,-0.0063915867,0.07163903,-0.036361936,0.6971616,-0.17612346,0,0,0,0,0,0,0,0,0,0,0,0,0,0,0,0,0,0,0,0,0
80,1.0332702,-0.91216505,0.41583633,0.2787331,-0.014913702,0.17070863,-0.18016368,0.07272387,-0.7764695,0,0,0,0,0,0,0,0,0,0,0,0,0,0,0,0,0,0,0,0,0
81,1.0259025,-0.9266178,0.41352174,0.24038358,-0.06072007,0.23675501,0.021996727,0.0017956513,-1.6449662,0,0,0,0,0,0,0,0,0,0,0,0,0,0,0,0,0,0,0,0,0
82,1.0159836,-0.9342757,0.40981233,-0.041911498,0.023435818,0.18136127,-0.18959084,0.009876082,-1.5943887,0,0,0,0,0,0,0,0,0,0,0,0,0,0,0,0,0,0,0,0,0
83,1.0046328,-0.9298842,0.40577456,-0.35083818,0.19707392,0.2793656,-1.1484686,-0.33129767,-1.335815,0,0,0,0,0,0,0,0,0,0,0,0,0,0,0,0,0,0,0,0,0
84,0.9929214,-0.92450947,0.40270114,-0.7002449,0.48363006,0.52650696,-1.0375872,-0.28625673,-0.48841715,0,0,0,0,0,0,0,0,0,0,0,0,0,0,0,0,0,0,0,0,0
85,0.9529822,-0.9046124,0.38569358,-0.9132978,0.8064052,0.74169034,-0.9864111,-0.59585696,0.8773253,0,0,0,0,0,0,0,0,0,0,0,0,0,0,0,0,0,0,0,0,0
86,0.9074777,-0.88548636,0.3663707,-0.66296065,0.39414784,0.5840312,-0.3812766,0.07047931,1.6801311,0,0,0,0,0,0,0,0,0,0,0,0,0,0,0,0,0,0,0,0,0
87,0.88604325,-0.8757978,0.34909964,-0.20276643,0.023435818,0.3901531,-0.6206968,-0.17492636,1.6047137,0,0,0,0,0,0,0,0,0,0,0,0,0,0,0,0,0,0,0,0,0
88,0.8699344,-0.8804371,0.33488533,0.06141915,-0.037284255,0.47217846,-1.0375872,-0.31408933,0.18001404,0,0,0,0,0,0,0,0,0,0,0,0,0,0,0,0,0,0,0,0,0
89,0.86033994,-0.8835282,0.3292376,-0.039780967,0.14913702,0.4199805,-0.31453824,-0.010025719,-0.51191026,0,0,0,0,0,0,0,0,0,0,0,0,0,0,0,0,0,0,0,0,0
90,0.83898705,-0.88128424,0.31670523,-0.4190151,-0.013848438,0.17603494,0.017956512,0.30945057,-0.6926725,0,0,0,0,0,0,0,0,0,0,0,0,0,0,0,0,0,0,0,0,0
91,0.8356163,-0.86708647,0.3100444,-0.35722977,-0.092678,-0.06471481,-0.5327099,-0.0796072,0.44696754,0,0,0,0,0,0,0,0,0,0,0,0,0,0,0,0,0,0,0,0,0
92,0.8402702,-0.8594024,0.3097995,-0.14524214,0.1107875,0.079095885,-1.2828432,-0.03755904,0.014065935,0,0,0,0,0,0,0,0,0,0,0,0,0,0,0,0,0,0,0,0,0
93,0.8367154,-0.85918313,0.3085557,-0.042976763,0.046871636,0.20799288,-0.48317984,0.121655375,0.03321955,0,0,0,0,0,0,0,0,0,0,0,0,0,0,0,0,0,0,0,0,0
94,0.82693386,-0.86065036,0.3012514,-0.028063059,-0.044741105,0.11638014,0.15278,0.036511578,-0.046537295,0,0,0,0,0,0,0,0,0,0,0,0,0,0,0,0,0,0,0,0,0
95,0.82080466,-0.8605176,0.2941816,-0.0568252,-0.07563377,0.15579492,0.03067571,-0.03172317,0.03247136,0,0,0,0,0,0,0,0,0,0,0,0,0,0,0,0,0,0,0,0,0
96,0.8076244,-0.8597951,0.28424746,-0.14630741,-0.024501082,0.17923073,0.13452421,0.1690905,-0.3824737,0,0,0,0,0,0,0,0,0,0,0,0,0,0,0,0,0,0,0,0,0
97,0.7944611,-0.8522992,0.27488774,-0.32420656,-0.008522116,0.11318435,0.24705169,0.43245268,-0.019752163,0,0,0,0,0,0,0,0,0,0,0,0,0,0,0,0,0,0,0,0,0
98,0.7909272,-0.8482505,0.27047578,-0.23578963,-0.25672874,0.011984224,-0.08499416,0.49709612,0.28191724,0,0,0,0,0,0,0,0,0,0,0,0,0,0,0,0,0,0,0,0,0
99,0.79004836,-0.8460852,0.2656016,-0.17506956,-0.24714135,0.050333746,-0.40701428,0.67067575,0.08319851,0,0,0,0,0,0,0,0,0,0,0,0,0,0,0,0,0,0,0,0,0
100,0.7883763,-0.84983325,0.2647334,0.20949091,0.13635385,0.3059972,-2.0368671,3.08448,-0.09202713,0,0,0,0,0,0,0,0,0,0,0,0,0,0,0,0,0,0,0,0,0
101,0.7677446,-0.8657744,0.25141022,0.27766782,-0.2876214,0.63622916,-1.4083891,3.9535751,0.2323872,0,0,0,0,0,0,0,0,0,0,0,0,0,0,0,0,0,0,0,0,0
102,0.72628266,-0.8864705,0.19447282,0.59618187,-1.2314457,0.6841661,0.6238392,3.219902,1.963395,0,0,0,0,0,0,0,0,0,0,0,0,0,0,0,0,0,0,0,0,0
103,0.68493176,-0.91841716,0.12606964,0.8774117,-1.2761868,0.46365634,2.5978584,2.294543,0.57954645,0,0,0,0,0,0,0,0,0,0,0,0,0,0,0,0,0,0,0,0,0
104,0.6557093,-0.9290868,0.10381224,0.58552927,-0.5241101,0.15686019,2.5659857,1.3564649,0.86610246,0,0,0,0,0,0,0,0,0,0,0,0,0,0,0,0,0,0,0,0,0
105,0.65224874,-0.9411688,0.102529116,0.475807,0.07456851,-0.33103094,1.3485341,-0.4810849,1.3210008,0,0,0,0,0,0,0,0,0,0,0,0,0,0,0,0,0,0,0,0,0
106,0.68403774,-0.95143825,0.12731929,0.5301355,0.13209279,-0.4332963,0.45010993,-1.6522985,1.4582185,0,0,0,0,0,0,0,0,0,0,0,0,0,0,0,0,0,0,0,0,0
107,0.7316278,-0.9655798,0.14838298,0.70803463,-0.19813919,-0.43542683,-0.2693477,-2.940379,0.91114336,0,0,0,0,0,0,0,0,0,0,0,0,0,0,0,0,0,0,0,0,0
108,0.7581635,-0.97203344,0.15662786,0.79858214,-0.10333065,-0.31824774,0.039055414,-3.5649664,-0.16714521,0,0,0,0,0,0,0,0,0,0,0,0,0,0,0,0,0,0,0,0,0
109,0.78296727,-0.9907955,0.17498952,0.6260093,0.07137272,-0.30546457,0.5719149,-3.8901289,-1.0345944,0,0,0,0,0,0,0,0,0,0,0,0,0,0,0,0,0,0,0,0,0
110,0.80812424,-0.9990167,0.20203097,0.20309933,0.34408042,-0.35659727,0.45459905,-3.9077861,-1.5779285,0,0,0,0,0,0,0,0,0,0,0,0,0,0,0,0,0,0,0,0,0
111,0.8293791,-0.99311864,0.23536862,-0.112218946,0.5773733,-0.37577203,0.48811787,-3.5809774,-1.297807,0,0,0,0,0,0,0,0,0,0,0,0,0,0,0,0,0,0,0,0,0
112,0.8424946,-0.9855263,0.2526486,-0.24005067,0.4165184,-0.49295112,0.37259763,-3.0020297,-0.71556705,0,0,0,0,0,0,0,0,0,0,0,0,0,0,0,0,0,0,0,0,0
113,0.8748007,-0.97124046,0.28925234,-0.41581932,0.35792884,-0.51851743,-0.2551321,-2.330905,-1.5080478,0,0,0,0,0,0,0,0,0,0,0,0,0,0,0,0,0,0,0,0,0
114,0.8909971,-0.9513658,0.31775373,-0.61502373,0.47510794,-0.39281625,-0.12704232,-1.6760908,-1.5559318,0,0,0,0,0,0,0,0,0,0,0,0,0,0,0,0,0,0,0,0,0
115,0.9033264,-0.9263755,0.341519,-0.6736133,0.30679616,-0.4460795,-0.27608138,-0.39893386,-0.8740333,0,0,0,0,0,0,0,0,0,0,0,0,0,0,0,0,0,0,0,0,0
116,0.91606927,-0.9160668,0.3566783,-0.5670869,0.19387813,-0.26711506,-1.590947,0.9011177,-1.261445,0,0,0,0,0,0,0,0,0,0,0,0,0,0,0,0,0,0,0,0,0
117,0.9209586,-0.8996015,0.36719212,-0.47760466,0.09374327,0.20479709,-3.2513258,2.8320413,-0.7873931,0,0,0,0,0,0,0,0,0,0,0,0,0,0,0,0,0,0,0,0,0
118,0.88903844,-0.89653856,0.33991444,-0.15802532,-0.4942827,0.95474327,-1.3739725,3.2368112,0.295235,0,0,0,0,0,0,0,0,0,0,0,0,0,0,0,0,0,0,0,0,0
119,0.80940115,-0.91036135,0.26230845,0.21694776,-1.0162623,1.0570086,2.5106196,2.2180781,0.48557404,0,0,0,0,0,0,0,0,0,0,0,0,0,0,0,0,0,0,0,0,0
120,0.7560203,-0.92795324,0.19082704,0.32773525,-1.2282499,0.32304144,3.202544,1.3572131,-0.45729253,0,0,0,0,0,0,0,0,0,0,0,0,0,0,0,0,0,0,0,0,0
121,0.7440891,-0.9305832,0.17199065,-0.29224864,-0.5230448,-0.3043993,1.5074493,0.50966567,-0.78888947,0,0,0,0,0,0,0,0,0,0,0,0,0,0,0,0,0,0,0,0,0
122,0.7661362,-0.9099435,0.18537116,-0.6192848,0.4878911,-0.37896782,-0.6841431,0.111779295,0.942268,0,0,0,0,0,0,0,0,0,0,0,0,0,0,0,0,0,0,0,0,0
123,0.7894518,-0.8902829,0.21635616,-0.22939804,0.52837116,-0.22343922,-1.5676036,-0.14320318,1.8424878,0,0,0,0,0,0,0,0,0,0,0,0,0,0,0,0,0,0,0,0,0
124,0.80496806,-0.888871,0.23123832,0.21481723,-0.080960095,-0.007190535,-1.5089456,-0.3024176,0.9769839,0,0,0,0,0,0,0,0,0,0,0,0,0,0,0,0,0,0,0,0,0
125,0.8079926,-0.89666915,0.22652367,0.23292673,-0.18429075,0.06844324,-0.5493196,-0.26351184,0.1225532,0,0,0,0,0,0,0,0,0,0,0,0,0,0,0,0,0,0,0,0,0
126,0.8090313,-0.89781606,0.22625682,0.023069633,0.06924219,0.029028455,-0.26560676,-0.14859015,0.16804303,0,0,0,0,0,0,0,0,0,0,0,0,0,0,0,0,0,0,0,0,0
127,0.8107093,-0.8970916,0.23239255,-0.006757771,0.30360037,0.06524745,-0.55321026,-0.041150343,0.38741177,0,0,0,0,0,0,0,0,0,0,0,0,0,0,0,0,0,0,0,0,0
128,0.8082296,-0.8983135,0.23853478,0.0539623,0.16724652,0.10466223,-0.43469724,0.120458275,0.35149872,0,0,0,0,0,0,0,0,0,0,0,0,0,0,0,0,0,0,0,0,0
129,0.80107546,-0.9030097,0.23359436,0.13279186,-0.05539375,0.18988338,-0.23493104,0.22580315,0.16774376,0,0,0,0,0,0,0,0,0,0,0,0,0,0,0,0,0,0,0,0,0
130,0.7848982,-0.90973675,0.22159651,0.10509499,-0.049002163,0.23462449,0.29972413,0.28835166,-0.19123685,0,0,0,0,0,0,0,0,0,0,0,0,0,0,0,0,0,0,0,0,0
131,0.77295375,-0.91240585,0.2162425,0.07526759,0.049002163,0.17390442,0.55350953,0.27667993,0.022146367,0,0,0,0,0,0,0,0,0,0,0,0,0,0,0,0,0,0,0,0,0
132,0.7601134,-0.91701007,0.21208902,0.10402973,0.11291803,0.087618,0.5092168,0.2551321,-0.15143326,0,0,0,0,0,0,0,0,0,0,0,0,0,0,0,0,0,0,0,0,0
133,0.75373316,-0.92155504,0.21394643,0.07526759,0.10120012,0.013049489,0.37065235,0.16400282,-0.2733879,0,0,0,0,0,0,0,0,0,0,0,0,0,0,0,0,0,0,0,0,0
134,0.75343853,-0.9238988,0.2190805,0.062484417,0.11504856,-0.047670584,0.10968436,0.050278235,-0.17283143,0,0,0,0,0,0,0,0,0,0,0,0,0,0,0,0,0,0,0,0,0
135,0.754072,-0.92530775,0.22292915,0.059288625,0.11824435,-0.022104237,-0.121655375,-0.017357962,-0.25917232,0,0,0,0,0,0,0,0,0,0,0,0,0,0,0,0,0,0,0,0,0
136,0.7533038,-0.92673004,0.22580013,0.02946122,0.0063915867,0.007723167,-0.010923545,7.48188E-4,-0.037110128,0,0,0,0,0,0,0,0,0,0,0,0,0,0,0,0,0,0,0,0,0
137,0.752267,-0.9286827,0.22436816,0.0869855,-0.10333065,-0.0018642128,0.03935469,0.03067571,0.015562311,0,0,0,0,0,0,0,0,0,0,0,0,0,0,0,0,0,0,0,0,0
138,0.7524094,-0.93240064,0.22217116,0.10616026,-0.07669904,0.015180018,-0.07167641,0.024839843,-0.16445173,0,0,0,0,0,0,0,0,0,0,0,0,0,0,0,0,0,0,0,0,0
139,0.7499803,-0.9354333,0.22078064,0.05822336,-0.010652645,0.027963191,0.011671733,0.06060323,-0.25857377,0,0,0,0,0,0,0,0,0,0,0,0,0,0,0,0,0,0,0,0,0
140,0.7481379,-0.936682,0.22072999,0.009221195,-0.0053263223,0.031158984,-0.0350152,0.021098902,-0.28909984,0,0,0,0,0,0,0,0,0,0,0,0,0,0,0,0,0,0,0,0,0
141,0.7452601,-0.93698037,0.21812113,0.0070906663,-0.07456851,0.019441076,0.041599255,-0.014814123,-0.0664391,0,0,0,0,0,0,0,0,0,0,0,0,0,0,0,0,0,0,0,0,0
142,0.7439496,-0.93840283,0.21458122,0.04437492,-0.12783173,0.020506341,-0.06599019,-0.036661215,-0.13946225,0,0,0,0,0,0,0,0,0,0,0,0,0,0,0,0,0,0,0,0,0
143,0.739997,-0.93966734,0.20850259,-3.6618466E-4,-0.14487596,0.037550572,0.043394905,0.014215573,-0.14859015,0,0,0,0,0,0,0,0,0,0,0,0,0,0,0,0,0,0,0,0,0
144,0.73506117,-0.9395621,0.20383799,-0.026997795,-0.04367584,0.03222425,0.13332711,0.046986207,-0.121655375,0,0,0,0,0,0,0,0,0,0,0,0,0,0,0,0,0,0,0,0,0
145,0.73261535,-0.93925273,0.20233043,-0.025932532,-0.08948221,0.031158984,-0.029478608,0.014664485,0.07347207,0,0,0,0,0,0,0,0,0,0,0,0,0,0,0,0,0,0,0,0,0
146,0.72880656,-0.9396178,0.19603626,0.035852805,-0.16831177,0.04181163,0.0055365916,0.052223526,0.07167641,0,0,0,0,0,0,0,0,0,0,0,0,0,0,0,0,0,0,0,0,0
147,0.72403795,-0.9411037,0.1890294,-3.6618466E-4,-0.10439591,0.055660065,0.033369187,0.09546879,-0.16145898,0,0,0,0,0,0,0,0,0,0,0,0,0,0,0,0,0,0,0,0,0
148,0.71790355,-0.9403823,0.18402037,-0.06428205,-0.041545313,0.050333746,0.080056116,0.1587655,-0.032621,0,0,0,0,0,0,0,0,0,0,0,0,0,0,0,0,0,0,0,0,0
149,0.71302134,-0.93879217,0.17859024,-0.042976763,-0.109722234,0.029028455,0.07047931,0.1743278,0.18884265,0,0,0,0,0,0,0,0,0,0,0,0,0,0,0,0,0,0,0,0,0
150,0.71057034,-0.93894917,0.17589583,0.0028296087,-0.15659387,-0.016777914,0.055216275,0.1666963,0.07691373,0,0,0,0,0,0,0,0,0,0,0,0,0,0,0,0,0,0,0,0,0
151,0.71048695,-0.93906367,0.172309,-0.0088883005,-0.111852765,-0.04234426,-0.030974984,0.12000936,0.030825347,0,0,0,0,0,0,0,0,0,0,0,0,0,0,0,0,0,0,0,0,0
152,0.71156967,-0.93776524,0.17223655,-0.038715705,-0.035153728,-0.06897587,0.030825347,0.025288755,0.12838906,0,0,0,0,0,0,0,0,0,0,0,0,0,0,0,0,0,0,0,0,0
153,0.71607304,-0.9359138,0.17576985,-0.025932532,-0.007456851,-0.08815063,-0.15711948,-0.06569091,0.163105,0,0,0,0,0,0,0,0,0,0,0,0,0,0,0,0,0,0,0,0,0
154,0.7195182,-0.9356915,0.17887098,0.028395955,0.03621899,-0.07536746,-0.30750528,-0.03187281,0.06958149,0,0,0,0,0,0,0,0,0,0,0,0,0,0,0,0,0,0,0,0,0
155,0.72549313,-0.93705666,0.1854764,0.05076651,0.04580637,-0.058323227,-0.3911527,-0.025737667,-0.10310031,0,0,0,0,0,0,0,0,0,0,0,0,0,0,0,0,0,0,0,0,0
156,0.72914326,-0.93826264,0.1893307,0.026265426,-0.0010652645,-0.010386328,-0.35942954,-0.07496844,-0.17133506,0,0,0,0,0,0,0,0,0,0,0,0,0,0,0,0,0,0,0,0,0
157,0.7301198,-0.9392292,0.19008371,0.024134897,-0.0053263223,0.014114753,-0.25887305,-0.11088146,-0.13183074,0,0,0,0,0,0,0,0,0,0,0,0,0,0,0,0,0,0,0,0,0
158,0.728824,-0.94054943,0.18935686,0.024134897,-0.0010652645,0.048203215,-0.24211365,-0.08723872,-0.17133506,0,0,0,0,0,0,0,0,0,0,0,0,0,0,0,0,0,0,0,0,0
159,0.7265004,-0.94138396,0.18831371,0.022004368,-0.023435818,0.046072688,-0.08783727,-0.041150343,-0.1882441,0,0,0,0,0,0,0,0,0,0,0,0,0,0,0,0,0,0,0,0,0
160,0.7239892,-0.9424311,0.18613699,0.0145475175,-0.039414782,0.03222425,-0.097414084,-0.012419921,-0.117615156,0,0,0,0,0,0,0,0,0,0,0,0,0,0,0,0,0,0,0,0,0
161,0.7202374,-0.94326895,0.18334356,-0.004627242,-0.01917476,0.046072688,-0.021996727,0.10968436,-0.08888474,0,0,0,0,0,0,0,0,0,0,0,0,0,0,0,0,0,0,0,0,0
162,0.71510094,-0.94282293,0.18158664,-0.038715705,0.051132694,0.04181163,0.0664391,0.1436521,0.061650693,0,0,0,0,0,0,0,0,0,0,0,0,0,0,0,0,0,0,0,0,0
163,0.7141886,-0.942404,0.18182606,0.009221195,0.002130529,0.0066579026,-0.060453594,0.06584055,0.24121583,0,0,0,0,0,0,0,0,0,0,0,0,0,0,0,0,0,0,0,0,0
164,0.71255845,-0.94360983,0.18084031,0.07846338,-0.03621899,0.04926848,-0.06015432,0.03755904,0.050128598,0,0,0,0,0,0,0,0,0,0,0,0,0,0,0,0,0,0,0,0,0
165,0.70816475,-0.9472887,0.17781897,0.07633285,-0.0127831735,0.05885586,-0.027383681,0.044592008,-0.23807344,0,0,0,0,0,0,0,0,0,0,0,0,0,0,0,0,0,0,0,0,0
166,0.7032205,-0.9491347,0.17610976,-3.6618466E-4,0.022370553,0.018375812,0.122852474,0.14170681,-0.15233108,0,0,0,0,0,0,0,0,0,0,0,0,0,0,0,0,0,0,0,0,0
167,0.70242107,-0.9482832,0.17637667,-0.01634515,0.007456851,0.0066579026,-0.09501988,0.030376434,0.17447744,0,0,0,0,0,0,0,0,0,0,0,0,0,0,0,0,0,0,0,0,0
168,0.70079553,-0.9497924,0.1757839,0.05076651,0.002130529,0.034354776,-0.124049574,0.021098902,0.017208325,0,0,0,0,0,0,0,0,0,0,0,0,0,0,0,0,0,0,0,0,0
169,0.6981464,-0.9513239,0.17465945,0.060353886,-0.01917476,0.05352954,-0.008230069,0.06823475,-0.13332711,0,0,0,0,0,0,0,0,0,0,0,0,0,0,0,0,0,0,0,0,0
170,0.69363433,-0.95394903,0.17183994,0.0390486,-0.023435818,0.023702133,0.11402386,0.08065467,-0.20814592,0,0,0,0,0,0,0,0,0,0,0,0,0,0,0,0,0,0,0,0,0
171,0.69294924,-0.9546038,0.17236935,-0.01634515,0.0127831735,-0.005060006,-0.07272387,0.062698156,-0.22011691,0,0,0,0,0,0,0,0,0,0,0,0,0,0,0,0,0,0,0,0,0
172,0.6922671,-0.95388323,0.17090958,-0.0088883005,-0.068176925,0.019441076,-0.20156185,-0.020051438,0.11581951,0,0,0,0,0,0,0,0,0,0,0,0,0,0,0,0,0,0,0,0,0
173,0.6906581,-0.954766,0.16892257,0.049701244,-0.092678,0.0396811,-0.12210429,-0.004938041,-0.07107786,0,0,0,0,0,0,0,0,0,0,0,0,0,0,0,0,0,0,0,0,0
174,0.6866159,-0.9564682,0.16500707,0.006025402,-0.033023197,0.03222425,0.02498948,0.019602526,-0.11432313,0,0,0,0,0,0,0,0,0,0,0,0,0,0,0,0,0,0,0,0,0
175,0.68423676,-0.9562819,0.16286445,-0.006757771,-0.029827405,0.011984224,0.06688801,0.029179333,0.10594343,0,0,0,0,0,0,0,0,0,0,0,0,0,0,0,0,0,0,0,0,0
176,0.6836192,-0.9571737,0.16232401,0.03691807,-0.010652645,0.008788432,-0.099658646,0.0074818805,0.04833295,0,0,0,0,0,0,0,0,0,0,0,0,0,0,0,0,0,0,0,0,0
177,0.6822751,-0.9583062,0.16219953,-0.0088883005,0.017044231,0.052464273,-0.28386253,0.12120646,-0.19677345,0,0,0,0,0,0,0,0,0,0,0,0,0,0,0,0,0,0,0,0,0
178,0.67923003,-0.95725477,0.16050562,-0.14630741,0.03195793,0.09827064,-0.052223526,-0.04070143,-0.043993454,0,0,0,0,0,0,0,0,0,0,0,0,0,0,0,0,0,0,0,0,0
179,0.67276764,-0.9524373,0.15510221,-0.028063059,-0.095873795,0.078030616,0.05551555,0.007182605,0.81552494,0,0,0,0,0,0,0,0,0,0,0,0,0,0,0,0,0,0,0,0,0
180,0.6698443,-0.95652527,0.14785562,0.22120881,-0.22370553,0.015180018,0.10160393,0.10908581,0.274585,0,0,0,0,0,0,0,0,0,0,0,0,0,0,0,0,0,0,0,0,0
181,0.6702207,-0.963566,0.14186324,0.17327192,-0.21837921,-0.019973708,0.012120646,0.0525228,-0.19348143,0,0,0,0,0,0,0,0,0,0,0,0,0,0,0,0,0,0,0,0,0
182,0.66965556,-0.9672483,0.13858604,0.097638145,-0.11291803,-0.028495824,0.09935937,-0.110731825,-0.1834557,0,0,0,0,0,0,0,0,0,0,0,0,0,0,0,0,0,0,0,0,0
183,0.6668046,-0.9690929,0.13834208,0.060353886,0.03834952,-0.03275688,0.15682021,-0.048482586,-0.37618893,0,0,0,0,0,0,0,0,0,0,0,0,0,0,0,0,0,0,0,0,0
184,0.66757506,-0.9706132,0.14363685,-0.0056925067,0.124635935,-0.0743022,0.098461546,0.06748656,-0.31064767,0,0,0,0,0,0,0,0,0,0,0,0,0,0,0,0,0,0,0,0,0
185,0.6678215,-0.96988356,0.15078942,-0.06215152,0.15339808,-0.050866377,0.09292495,0.13482349,-0.38157588,0,0,0,0,0,0,0,0,0,0,0,0,0,0,0,0,0,0,0,0,0
186,0.6679097,-0.9672266,0.15882812,-0.12926318,0.185356,-0.10199907,0.25213936,0.2587234,-0.57849896,0,0,0,0,0,0,0,0,0,0,0,0,0,0,0,0,0,0,0,0,0
187,0.673929,-0.9591027,0.17126116,-0.25496438,0.21944447,-0.15100123,-0.0016460137,-0.030974984,-0.07811083,0,0,0,0,0,0,0,0,0,0,0,0,0,0,0,0,0,0,0,0,0
188,0.678595,-0.9549571,0.1761295,-0.2006359,0.094808534,-0.114782244,-0.17178397,-0.045489833,0.0525228,0,0,0,0,0,0,0,0,0,0,0,0,0,0,0,0,0,0,0,0,0
189,0.68177015,-0.94938576,0.18242106,-0.15482953,0.20985709,0.06098639,-0.23971945,-0.12030864,-0.25438392,0,0,0,0,0,0,0,0,0,0,0,0,0,0,0,0,0,0,0,0,0
190,0.6724883,-0.9462518,0.18293422,-0.17187376,0.25885925,0.2133192,-0.20694882,-0.004938041,-0.633416,0,0,0,0,0,0,0,0,0,0,0,0,0,0,0,0,0,0,0,0,0
191,0.65311915,-0.9406486,0.1772487,-0.29864022,0.257794,0.26338664,0.27667993,0.13871406,-0.6441899,0,0,0,0,0,0,0,0,0,0,0,0,0,0,0,0,0,0,0,0,0
192,0.6462614,-0.9363048,0.1738118,-0.34870765,0.20133498,0.49241847,-0.40851066,-0.21772271,-0.38845924,0,0,0,0,0,0,0,0,0,0,0,0,0,0,0,0,0,0,0,0,0
193,0.6114634,-0.9284695,0.15209092,-0.3625561,-0.15233281,0.6117281,-0.27548283,0.55321026,0.32561144,0,0,0,0,0,0,0,0,0,0,0,0,0,0,0,0,0,0,0,0,0
194,0.5751345,-0.9194919,0.11310086,-0.3082276,-0.4548679,0.42104575,0.60707974,-0.08678981,0.187047,0,0,0,0,0,0,0,0,0,0,0,0,0,0,0,0,0,0,0,0,0
195,0.5555248,-0.9111182,0.086679466,-0.25070333,-0.17257284,0.30706248,0.034865562,0.030526072,0.5270237,0,0,0,0,0,0,0,0,0,0,0,0,0,0,0,0,0,0,0,0,0
196,0.5510172,-0.9062517,0.07640562,-0.046172556,-0.12996227,0.10359696,-0.21024084,-0.23268647,0.9386767,0,0,0,0,0,0,0,0,0,0,0,0,0,0,0,0,0,0,0,0,0
197,0.551869,-0.90640515,0.074040405,0.17327192,-0.015978966,0.04181163,-0.338181,0.050727148,0.8252514,0,0,0,0,0,0,0,0,0,0,0,0,0,0,0,0,0,0,0,0,0
198,0.55315864,-0.9133329,0.07631248,0.23505725,0.10226539,-0.11691277,0.008529344,0.14065935,0.3664625,0,0,0,0,0,0,0,0,0,0,0,0,0,0,0,0,0,0,0,0,0
199,0.5690134,-0.92061543,0.09300992,0.17753297,0.19494338,-0.1520665,-0.8749311,0.23523031,-0.36137483,0,0,0,0,0,0,0,0,0,0,0,0,0,0,0,0,0,0,0,0,0
200,0.57361436,-0.9251351,0.103712454,0.097638145,0.19494338,-0.019973708,-0.41913494,0.15741876,-0.24211365,0,0,0,0,0,0,0,0,0,0,0,0,0,0,0,0,0,0,0,0,0
201,0.5800151,-0.92399186,0.10896404,-0.098370515,-0.035153728,-0.13289174,-0.087538,-0.009127894,-0.3528455,0,0,0,0,0,0,0,0,0,0,0,0,0,0,0,0,0,0,0,0,0
202,0.5830843,-0.9202727,0.109793365,-0.15589479,0.07350325,-0.019973708,-0.17298107,-0.066738375,0.1985691,0,0,0,0,0,0,0,0,0,0,0,0,0,0,0,0,0,0,0,0,0
203,0.5823726,-0.9173802,0.114741474,0.037983336,0.3536678,0.040746365,0.10235212,-0.1050456,0.40566754,0,0,0,0,0,0,0,0,0,0,0,0,0,0,0,0,0,0,0,0,0
204,0.58337104,-0.91912955,0.12803082,0.07846338,0.44101948,0.029028455,-0.13871406,-0.08319851,0.28835166,0,0,0,0,0,0,0,0,0,0,0,0,0,0,0,0,0,0,0,0,0
205,0.5812741,-0.923754,0.1401743,0.14877084,0.4314321,0.05352954,0.18046296,0.018704701,-0.025737667,0,0,0,0,0,0,0,0,0,0,0,0,0,0,0,0,0,0,0,0,0
206,0.5832173,-0.9315262,0.15251704,0.2244046,0.2972088,0.040746365,-0.2311901,0.088585466,-0.44262803,0,0,0,0,0,0,0,0,0,0,0,0,0,0,0,0,0,0,0,0,0
207,0.5788129,-0.9356066,0.15132782,0.17114139,0.0031957934,0.078030616,0.26800096,0.30526072,-0.3935469,0,0,0,0,0,0,0,0,0,0,0,0,0,0,0,0,0,0,0,0,0
208,0.58131355,-0.9409693,0.14806432,0.10296447,-0.25992453,-0.06364955,-0.045190558,0.18974048,-0.4571429,0,0,0,0,0,0,0,0,0,0,0,0,0,0,0,0,0,0,0,0,0
209,0.5824789,-0.9446598,0.13825978,0.027330691,-0.32597092,-0.03488741,0.045938745,0.16265608,-0.45848963,0,0,0,0,0,0,0,0,0,0,0,0,0,0,0,0,0,0,0,0,0
210,0.5842085,-0.9432993,0.13247176,-0.055759937,-0.22690132,-0.12117383,0.36317047,0.10594343,-0.10235212,0,0,0,0,0,0,0,0,0,0,0,0,0,0,0,0,0,0,0,0,0
211,0.5894525,-0.941831,0.13368332,-0.07386943,-0.096939065,-0.12436962,-0.1719336,0.03172317,-0.061650693,0,0,0,0,0,0,0,0,0,0,0,0,0,0,0,0,0,0,0,0,0
212,0.5958136,-0.93881595,0.13445483,-0.069608375,-0.13102752,-0.1190433,-0.080056116,0.06419453,-0.0053869537,0,0,0,0,0,0,0,0,0,0,0,0,0,0,0,0,0,0,0,0,0
213,0.60198635,-0.9365801,0.13538378,0.011351724,-0.113983296,-0.16484967,0.20320787,0.05686229,0.33563715,0,0,0,0,0,0,0,0,0,0,0,0,0,0,0,0,0,0,0,0,0
214,0.6123091,-0.93928874,0.14068848,0.15196663,-0.07456851,-0.22450447,0.22969373,-0.004638766,0.18510172,0,0,0,0,0,0,0,0,0,0,0,0,0,0,0,0,0,0,0,0,0
215,0.62925684,-0.94272196,0.1496927,0.15516242,-0.18109496,-0.3225088,0.24286184,-0.15188217,-0.006434417,0,0,0,0,0,0,0,0,0,0,0,0,0,0,0,0,0,0,0,0,0
216,0.6458193,-0.94500333,0.1577816,0.17753297,-0.1885518,-0.31931302,-0.64583594,-0.2208651,-0.43559507,0,0,0,0,0,0,0,0,0,0,0,0,0,0,0,0,0,0,0,0,0
217,0.66389817,-0.9480819,0.16683507,0.009221195,-0.10865697,-0.12650014,-0.7333739,0.14589667,-0.4002806,0,0,0,0,0,0,0,0,0,0,0,0,0,0,0,0,0,0,0,0,0
218,0.6703708,-0.94601446,0.16700107,0.0028296087,-0.12357067,-0.043409526,-0.34685996,-0.06180033,0.2463035,0,0,0,0,0,0,0,0,0,0,0,0,0,0,0,0,0,0,0,0,0
219,0.67033905,-0.9497782,0.1606444,0.14557505,-0.32810146,-0.06897587,0.15233108,0.34641105,0.13497312,0,0,0,0,0,0,0,0,0,0,0,0,0,0,0,0,0,0,0,0,0
220,0.6802216,-0.9523544,0.15824206,0.059288625,-0.31957933,-0.1520665,-0.16280572,0.08828619,-0.1678934,0,0,0,0,0,0,0,0,0,0,0,0,0,0,0,0,0,0,0,0,0
221,0.68258935,-0.951685,0.1580525,-0.03125885,-0.033023197,-0.06897587,-0.20231004,0.13482349,0.22116438,0,0,0,0,0,0,0,0,0,0,0,0,0,0,0,0,0,0,0,0,0
222,0.6882831,-0.9501153,0.16527374,-0.015279886,0.24714135,-0.07962851,-0.19797055,0.12240356,0.16699557,0,0,0,0,0,0,0,0,0,0,0,0,0,0,0,0,0,0,0,0,0
223,0.6896554,-0.94985807,0.17805633,0.03691807,0.37284255,-0.04234426,-0.065092355,0.1690905,0.43754035,0,0,0,0,0,0,0,0,0,0,0,0,0,0,0,0,0,0,0,0,0
224,0.69501805,-0.9525874,0.19528869,0.097638145,0.35792884,-0.08282431,-0.15218145,0.28476036,-0.044143096,0,0,0,0,0,0,0,0,0,0,0,0,0,0,0,0,0,0,0,0,0
225,0.69868934,-0.95400524,0.20455165,0.06354968,0.14274544,-0.07749799,0.055365913,0.28880057,0.22251113,0,0,0,0,0,0,0,0,0,0,0,0,0,0,0,0,0,0,0,0,0
226,0.7013384,-0.95630735,0.20949942,0.13172661,0.14913702,-0.14780544,0.16325463,0.253935,-0.14978725,0,0,0,0,0,0,0,0,0,0,0,0,0,0,0,0,0,0,0,0,0
227,0.71286356,-0.9590164,0.22624023,0.12000869,0.31851405,-0.170176,-0.048632223,0.14260463,-0.03007716,0,0,0,0,0,0,0,0,0,0,0,0,0,0,0,0,0,0,0,0,0
228,0.72275347,-0.96267974,0.24623829,0.22333935,0.33449304,-0.18722022,0.24256256,0.21667525,0.5376479,0,0,0,0,0,0,0,0,0,0,0,0,0,0,0,0,0,0,0,0,0
229,0.7381872,-0.97212553,0.26595676,0.32773525,0.1470065,-0.19041602,-0.02124854,0.11656769,-0.3196259,1,0,0,0,0,0,0,0,0,0,0,0,0,0,0,0,0,0,0,0,0
230,0.742243,-0.9768549,0.27252296,0.30110365,0.035153728,-0.32996565,0.5955577,0.34207156,-0.051475335,1,0,0,0,0,0,0,0,0,0,0,0,0,0,0,0,0,0,0,0,0
231,0.7677603,-0.98295724,0.29694992,0.25103623,0.17789915,-0.44927529,0.17657238,0.49530047,-0.11731588,1,0,0,0,0,0,0,0,0,0,0,0,0,0,0,0,0,0,0,0,0
232,0.7976872,-0.9878086,0.32992744,0.3085605,0.1768339,-0.5153217,0.1328782,0.7007529,-0.07796119,1,0,0,0,0,0,0,0,0,0,0,0,0,0,0,0,0,0,0,0,0
233,0.84410113,-0.9920015,0.37329742,0.30642998,0.18961707,-0.58243334,-0.6440403,0.8538322,-0.58553195,1,0,0,0,0,0,0,0,0,0,0,0,0,0,0,0,0,0,0,0,0
234,0.8688809,-0.99542534,0.39399406,0.38739008,-0.025566347,0.55313855,-6.7241154,-0.16011223,-0.27922377,1,0,0,0,0,0,0,0,0,0,0,0,0,0,0,0,0,0,0,0,0
235,0.82807326,-1.001095,0.34692967,0.8774117,-0.49534795,5.635515,-18.435352,-4.9257708,2.566285,1,0,0,0,0,0,0,0,0,0,0,0,0,0,0,0,0,0,0,0,0
236,0.30747446,-1.0279784,-0.15817076,1.1096394,-3.468501,13.072126,-22.695087,-25.696966,-3.7774518,1,0,0,0,0,0,0,0,0,0,0,0,0,0,0,0,0,0,0,0,0
237,-0.51293,-0.75419605,-0.9947617,3.3243241,-7.1809473,15.307051,5.988198,-21.737556,-2.0551229,1,0,0,0,0,0,0,0,0,0,0,0,0,0,0,0,0,0,0,0,0
238,-0.80912477,-0.38330692,-1.4075278,1.5346799,-6.0773335,11.196196,18.584991,-7.4317517,-17.050308,1,0,0,0,0,0,0,0,0,0,0,0,0,0,0,0,0,0,0,0,0
239,-0.8299753,-0.17024592,-1.5214045,-0.986801,-1.9984361,4.6405582,21.596897,-3.3185132,-12.698846,1,0,0,0,0,0,0,0,0,0,0,0,0,0,0,0,0,0,0,0,0
240,-0.81811106,-0.13650003,-1.5249954,-1.143395,-0.42290998,0.7438209,7.761254,-3.421464,0.80684596,1,0,0,0,0,0,0,0,0,0,0,0,0,0,0,0,0,0,0,0,0
241,-0.7987809,-0.12092205,-1.5163349,-0.70131016,0.61572284,0.11638014,0.626383,-0.8463503,1.4487913,1,0,0,0,0,0,0,0,0,0,0,0,0,0,0,0,0,0,0,0,0
242,-0.79099715,-0.11746871,-1.51646,-0.31035814,-0.36005938,-0.06471481,3.246388,1.3681366,-1.1704654,1,0,0,0,0,0,0,0,0,0,0,0,0,0,0,0,0,0,0,0,0
243,-0.77442694,-0.14994194,-1.5179689,-0.8206198,0.36218992,-1.5859125,5.966201,2.7208605,-3.4509425,1,0,0,0,0,0,0,0,0,0,0,0,0,0,0,0,0,0,0,0,0
244,-0.73882645,-0.24322061,-1.4668868,-0.78227025,1.3912354,-3.4501252,10.607211,2.100912,3.0557497,1,0,0,0,0,0,0,0,0,0,0,0,0,0,0,0,0,0,0,0,0
245,-0.7506453,-0.3431888,-1.4469125,0.5418534,0.6764429,-8.6848345,23.661297,-0.22430678,2.2990322,1,0,0,0,0,0,0,0,0,0,0,0,0,0,0,0,0,0,0,0,0
246,-0.72765124,-0.695902,-1.4276549,-0.5692174,1.458347,-12.873454,5.2169657,-18.547281,-14.663138,0,0,0,0,0,0,0,0,0,0,0,0,0,0,0,0,0,0,0,0,0
247,-0.25947666,-1.0191413,-0.8625773,-4.418018,6.7793427,-11.84867,-20.998346,-13.549386,-0.16624738,0,0,0,0,0,0,0,0,0,0,0,0,0,0,0,0,0,0,0,0,0
248,0.28053463,-1.0815372,-0.306142,-1.0134326,1.0024139,-5.623265,-24.036737,-6.547693,5.4180784,0,0,0,0,0,0,0,0,0,0,0,0,0,0,0,0,0,0,0,0,0
249,0.40110347,-1.0847374,-0.22314712,-0.42647195,-1.2112056,-0.24687503,-10.636091,-3.0784945,-1.589301,0,0,0,0,0,0,0,0,0,0,0,0,0,0,0,0,0,0,0,0,0
250,0.39531058,-1.0786514,-0.24640031,-0.47547412,0.111852765,-0.3640541,2.4471734,-0.91742814,-1.2997522,0,0,0,0,0,0,0,0,0,0,0,0,0,0,0,0,0,0,0,0,0
251,0.462291,-1.0524964,-0.16289331,-1.2914667,1.2357067,-0.8423579,1.5313913,-0.7354688,1.136348,0,0,0,0,0,0,0,0,0,0,0,0,0,0,0,0,0,0,0,0,0
252,0.51392984,-1.016474,-0.08833322,-0.89731884,0.60933125,-0.19787286,-0.16534956,-0.055964466,2.5589528,0,0,0,0,0,0,0,0,0,0,0,0,0,0,0,0,0,0,0,0,0
253,0.50540316,-1.0023862,-0.075485446,-0.4999752,0.37284255,-0.20426445,2.0560207,0.9567829,-0.98686004,0,0,0,0,0,0,0,0,0,0,0,0,0,0,0,0,0,0,0,0,0
254,0.5221165,-0.99069333,-0.044741724,-0.9995842,0.9917612,-0.71026504,-0.057760116,0.45863926,0.032022446,0,0,0,0,0,0,0,0,0,0,0,0,0,0,0,0,0,0,0,0,0
255,0.5811862,-0.955571,0.030409396,-0.8238156,0.9129316,-0.62291336,-2.01502,-0.1925836,2.2322938,0,0,0,0,0,0,0,0,0,0,0,0,0,0,0,0,0,0,0,0,0
256,0.6082139,-0.93863285,0.07168744,-0.3923835,0.42077944,-0.2724414,-0.48632222,0.54857147,0.22101474,0,0,0,0,0,0,0,0,0,0,0,0,0,0,0,0,0,0,0,0,0
257,0.62175804,-0.9266637,0.09385767,-0.38812244,0.36005938,-0.19893813,0.13841479,0.5553052,0.13542204,0,0,0,0,0,0,0,0,0,0,0,0,0,0,0,0,0,0,0,0,0
258,0.6332263,-0.9158665,0.12177646,-0.31568447,0.63915867,-0.18295917,0.25303718,0.6227917,0.31109658,0,0,0,0,0,0,0,0,0,0,0,0,0,0,0,0,0,0,0,0,0
259,0.6414505,-0.9133187,0.13679537,-0.18359166,0.44421527,-0.071106404,-0.40177697,0.58089316,0.063296705,0,0,0,0,0,0,0,0,0,0,0,0,0,0,0,0,0,0,0,0,0
260,0.6456687,-0.9103636,0.1478883,-0.07386943,0.03195793,-0.0029294773,0.13123219,0.5342063,-0.16744448,0,0,0,0,0,0,0,0,0,0,0,0,0,0,0,0,0,0,0,0,0
261,0.6446074,-0.90984046,0.14843033,-0.1047621,0.04367584,0.005592638,0.4185364,0.46657005,-0.2697966,0,0,0,0,0,0,0,0,0,0,0,0,0,0,0,0,0,0,0,0,0
262,0.6522526,-0.9070099,0.15700269,-0.1047621,0.14807175,-0.11052118,0.23537995,0.4285621,-0.03995324,0,0,0,0,0,0,0,0,0,0,0,0,0,0,0,0,0,0,0,0,0
263,0.6609679,-0.90645355,0.16387057,-0.007823036,0.035153728,-0.03488741,-0.30930093,0.24779987,0.058209028,0,0,0,0,0,0,0,0,0,0,0,0,0,0,0,0,0,0,0,0,0
264,0.6669244,-0.9097242,0.16728385,0.079528645,-0.07456851,0.029028455,-0.2641104,0.19288288,-0.5493196,0,0,0,0,0,0,0,0,0,0,0,0,0,0,0,0,0,0,0,0,0
265,0.6628873,-0.91520107,0.16553862,0.043309655,0.011717909,0.106792755,0.16160862,0.16684593,-0.94645786,0,0,0,0,0,0,0,0,0,0,0,0,0,0,0,0,0,0,0,0,0
266,0.6610694,-0.9185035,0.16724603,-0.05895573,0.04580637,-0.05725796,0.4592378,0.19003975,-1.3350667,0,0,0,0,0,0,0,0,0,0,0,0,0,0,0,0,0,0,0,0,0
267,0.66846377,-0.9125328,0.17704915,-0.25922543,0.13848437,-0.07323693,-0.10699089,0.038007952,-0.82031333,0,0,0,0,0,0,0,0,0,0,0,0,0,0,0,0,0,0,0,0,0
268,0.6712666,-0.9095619,0.18047181,-0.15163374,0.051132694,0.04926848,-0.03546411,0.13602059,-0.028431145,0,0,0,0,0,0,0,0,0,0,0,0,0,0,0,0,0,0,0,0,0
269,0.6679735,-0.90833545,0.17878503,-0.10263157,-0.03195793,0.034354776,0.22430678,0.27488428,-0.547524,0,0,0,0,0,0,0,0,0,0,0,0,0,0,0,0,0,0,0,0,0
270,0.6700133,-0.90477824,0.17922573,-0.17293902,-0.015978966,-0.03914847,0.11656769,0.3107973,-0.17283143,0,0,0,0,0,0,0,0,0,0,0,0,0,0,0,0,0,0,0,0,0
271,0.67401874,-0.90026665,0.18047449,-0.11434948,-0.0031957934,-0.016777914,0.004489128,0.31453824,0.24974516,0,0,0,0,0,0,0,0,0,0,0,0,0,0,0,0,0,0,0,0,0
272,0.67532283,-0.9008243,0.18132523,-0.006757771,-0.0127831735,0.043942157,-0.05117606,0.41883567,-0.056563016,0,0,0,0,0,0,0,0,0,0,0,0,0,0,0,0,0,0,0,0,0
273,0.6766823,-0.9020736,0.18083733,-0.04510729,-0.10333065,0.0066579026,0.09861118,0.42646718,-0.24765024,0,0,0,0,0,0,0,0,0,0,0,0,0,0,0,0,0,0,0,0,0
274,0.6781544,-0.9008336,0.18011132,-0.028063059,0.020240024,-0.016777914,0.16564883,0.40970775,0.24555531,0,0,0,0,0,0,0,0,0,0,0,0,0,0,0,0,0,0,0,0,0
275,0.6800269,-0.9027973,0.18310417,0.03691807,0.02130529,-0.0018642128,0.09756372,0.37992987,-0.09442133,0,0,0,0,0,0,0,0,0,0,0,0,0,0,0,0,0,0,0,0,0
276,0.68374383,-0.90565985,0.18608466,0.03691807,-0.029827405,-0.058323227,0.1786673,0.4019266,-0.39085343,0,0,0,0,0,0,0,0,0,0,0,0,0,0,0,0,0,0,0,0,0
277,0.6881147,-0.90658313,0.18999946,0.01028646,0.02663161,-0.06151902,0.21877018,0.31453824,-0.07347207,0,0,0,0,0,0,0,0,0,0,0,0,0,0,0,0,0,0,0,0,0
278,0.69462913,-0.90814865,0.19457439,0.08592024,0.017044231,2.663161E-4,-0.37259763,0.16968904,-0.07107786,0,0,0,0,0,0,0,0,0,0,0,0,0,0,0,0,0,0,0,0,0
279,0.6950458,-0.91385,0.19535023,0.13705292,-0.039414782,0.05352954,0.08933365,0.19871874,-0.44023383,0,0,0,0,0,0,0,0,0,0,0,0,0,0,0,0,0,0,0,0,0
280,0.6941156,-0.9193446,0.1946975,0.05822336,-0.022370553,0.011984224,0.2837129,0.1834557,-0.717662,0,0,0,0,0,0,0,0,0,0,0,0,0,0,0,0,0,0,0,0,0
281,0.6968016,-0.9201331,0.19854833,-0.029128324,0.06498113,-0.033822145,0.14844051,0.17657238,-0.3636194,0,0,0,0,0,0,0,0,0,0,0,0,0,0,0,0,0,0,0,0,0
282,0.6998168,-0.9202339,0.20053147,0.030526483,-0.039414782,-0.03488741,0.07062895,0.17417817,0.1643021,0,0,0,0,0,0,0,0,0,0,0,0,0,0,0,0,0,0,0,0,0
283,0.7030335,-0.9237688,0.202988,0.08592024,0.024501082,-0.030626353,0.15188217,0.2184709,-0.31019875,1,0,0,0,0,0,0,0,0,0,0,0,0,0,0,0,0,0,0,0,0
284,0.7074504,-0.92732173,0.2090165,0.05183177,0.052197956,-0.051931642,0.04818331,0.19752164,-0.5279215,1,0,0,0,0,0,0,0,0,0,0,0,0,0,0,0,0,0,0,0,0
285,0.71404165,-0.9291387,0.21500687,0.026265426,0.0010652645,-0.07536746,-0.026934769,0.20605098,-0.39923313,1,0,0,0,0,0,0,0,0,0,0,0,0,0,0,0,0,0,0,0,0
286,0.7171684,-0.9305858,0.21836519,0.01774331,-0.0053263223,-0.06258429,0.25917232,0.29942486,-0.18136078,1,0,0,0,0,0,0,0,0,0,0,0,0,0,0,0,0,0,0,0,0
287,0.72418535,-0.9322391,0.22380194,0.06781074,0.025566347,-0.06364955,-0.2916437,0.37155017,-0.3048118,1,0,0,0,0,0,0,0,0,0,0,0,0,0,0,0,0,0,0,0,0
288,0.7349303,-0.9353612,0.23256499,0.05609283,-0.014913702,0.07483482,-0.8206126,0.5292682,-0.6757634,1,0,0,0,0,0,0,0,0,0,0,0,0,0,0,0,0,0,0,0,0
289,0.72993326,-0.9355127,0.22200781,0.32880053,-0.23329291,1.6492957,-7.3841667,-1.3566146,-1.0893618,1,0,0,0,0,0,0,0,0,0,0,0,0,0,0,0,0,0,0,0,0
290,0.50708383,-0.95440406,-0.005515499,0.73573154,-3.0743532,7.302654,-23.331945,-5.4650645,-3.0693667,1,0,0,0,0,0,0,0,0,0,0,0,0,0,0,0,0,0,0,0,0
291,-0.088951975,-0.74948525,-0.61138695,-1.0688264,-4.783037,14.413294,-14.667627,-27.902327,-9.870096,1,0,0,0,0,0,0,0,0,0,0,0,0,0,0,0,0,0,0,0,0
292,-0.37858197,-0.5409759,-0.8182329,-0.07280417,-4.4741106,14.622086,2.211644,-20.664206,3.1268275,1,0,0,0,0,0,0,0,0,0,0,0,0,0,0,0,0,0,0,0,0
293,-0.7044609,-0.18299331,-1.1411488,2.840694,-6.62701,10.434531,19.977219,-7.4354925,-7.522133,1,0,0,0,0,0,0,0,0,0,0,0,0,0,0,0,0,0,0,0,0
294,-0.84361994,0.010444466,-1.2864524,0.42041326,-1.1600729,3.9779637,25.933992,-3.2444425,-12.444612,1,0,0,0,0,0,0,0,0,0,0,0,0,0,0,0,0,0,0,0,0
295,-0.84125406,0.03668721,-1.2948009,-0.65656906,0.2034655,-0.7241135,10.112958,-2.2589293,-1.9605519,1,0,0,0,0,0,0,0,0,0,0,0,0,0,0,0,0,0,0,0,0
296,-0.81401753,-0.0060886834,-1.2828245,-0.7268765,0.48149952,-1.77766,2.4818892,-1.0096049,0.011073183,1,0,0,0,0,0,0,0,0,0,0,0,0,0,0,0,0,0,0,0,0
297,-0.79791915,-0.03646522,-1.2837076,-0.65124273,0.2247708,-2.4008398,5.1454387,0.9897031,0.27667993,1,0,0,0,0,0,0,0,0,0,0,0,0,0,0,0,0,0,0,0,0
298,-0.75519305,-0.1291479,-1.2690495,-0.48932254,0.6785734,-4.5196505,11.891102,3.0618846,1.5216649,1,0,0,0,0,0,0,0,0,0,0,0,0,0,0,0,0,0,0,0,0
299,-0.6957711,-0.3347209,-1.2128481,6.9907977E-4,1.9259981,-8.519718,12.416629,-1.723077,1.239149,1,0,0,0,0,0,0,0,0,0,0,0,0,0,0,0,0,0,0,0,0
300,-0.5617331,-0.6222404,-1.0225817,0.29471207,5.064267,-11.008176,-1.1806407,-7.118111,-2.7633576,1,0,0,0,0,0,0,0,0,0,0,0,0,0,0,0,0,0,0,0,0
301,-0.36814582,-0.7397183,-0.78688425,-0.8919925,5.2879725,-10.093114,-11.438747,-1.1026795,-0.1707365,1,0,0,0,0,0,0,0,0,0,0,0,0,0,0,0,0,0,0,0,0
302,0.06018687,-0.8690681,-0.36787772,-0.3838614,0.63596284,-5.98652,-24.23815,4.7355814,5.406556,1,0,0,0,0,0,0,0,0,0,0,0,0,0,0,0,0,0,0,0,0
303,0.28272188,-0.89472824,-0.18531299,-0.4072972,0.63596284,-2.3347933,-12.76723,5.9656024,0.3776853,1,0,0,0,0,0,0,0,0,0,0,0,0,0,0,0,0,0,0,0,0
304,0.41567096,-0.8944939,-0.045560107,-0.36149082,1.2293152,-2.0279973,-5.7900777,1.1026795,-1.8810943,1,0,0,0,0,0,0,0,0,0,0,0,0,0,0,0,0,0,0,0,0
305,0.52181965,-0.8815429,0.06761041,-0.5116931,0.850081,-1.3781859,-2.4087164,-0.45444942,-2.023699,1,0,0,0,0,0,0,0,0,0,0,0,0,0,0,0,0,0,0,0,0
306,0.5594653,-0.86736846,0.09943965,-0.7204849,0.26631612,-0.5334312,-1.3157635,-0.11207857,1.0947487,0,0,0,0,0,0,0,0,0,0,0,0,0,0,0,0,0,0,0,0,0
307,0.5690859,-0.85371137,0.112713076,-0.034454647,0.11291803,-0.45779738,2.6334722,0.4297592,0.7154174,0,0,0,0,0,0,0,0,0,0,0,0,0,0,0,0,0,0,0,0,0
308,0.60925364,-0.8504488,0.15378185,-0.33592448,0.5773733,-0.6974819,-0.688333,0.29328972,-1.2089223,0,0,0,0,0,0,0,0,0,0,0,0,0,0,0,0,0,0,0,0,0
309,0.6404718,-0.8364367,0.18437935,-0.25496438,0.11717909,-0.23089607,-0.56682724,0.23852235,0.6976105,0,0,0,0,0,0,0,0,0,0,0,0,0,0,0,0,0,0,0,0,0
310,0.64102054,-0.8391184,0.18347472,-0.006757771,-0.095873795,-0.04660532,1.0145429,0.37978023,-0.56652796,0,0,0,0,0,0,0,0,0,0,0,0,0,0,0,0,0,0,0,0,0
311,0.6467781,-0.84002185,0.19046837,-0.18146114,0.29507825,-0.24367924,0.5140052,0.24585459,-0.3660136,0,0,0,0,0,0,0,0,0,0,0,0,0,0,0,0,0,0,0,0,0
312,0.6641724,-0.8343052,0.21402226,-0.15589479,0.34301513,-0.050866377,-0.7365163,0.22655134,0.24914661,0,0,0,0,0,0,0,0,0,0,0,0,0,0,0,0,0,0,0,0,0
313,0.6630391,-0.83508015,0.21316177,-0.04723782,-0.15765913,0.18668759,-0.39175126,0.21338323,0.09831191,0,0,0,0,0,0,0,0,0,0,0,0,0,0,0,0,0,0,0,0,0
314,0.655898,-0.8400038,0.2023734,0.0539623,-0.13422331,0.10146644,0.43155485,0.22056583,-0.020201078,0,0,0,0,0,0,0,0,0,0,0,0,0,0,0,0,0,0,0,0,0
315,0.65693223,-0.8406457,0.20411839,-0.08771787,0.09374327,0.026897926,-0.043394905,0.14036007,0.22849663,0,0,0,0,0,0,0,0,0,0,0,0,0,0,0,0,0,0,0,0,0
316,0.65690845,-0.84281427,0.20407788,0.0390486,-0.033023197,0.09081379,0.09187749,0.12479776,0.542137,0,0,0,0,0,0,0,0,0,0,0,0,0,0,0,0,0,0,0,0,0
317,0.65549535,-0.849206,0.20065013,0.06354968,-0.058589544,0.026897926,0.14694414,0.11043255,-0.31498715,0,0,0,0,0,0,0,0,0,0,0,0,0,0,0,0,0,0,0,0,0
318,0.6574089,-0.8529564,0.20236073,0.035852805,0.025566347,0.03542004,-0.12419921,0.027084406,-0.13482349,0,0,0,0,0,0,0,0,0,0,0,0,0,0,0,0,0,0,0,0,0
319,0.6591442,-0.85781485,0.20329915,0.04863598,-0.041545313,0.052464273,-0.15547347,-0.009277532,-0.29628247,0,0,0,0,0,0,0,0,0,0,0,0,0,0,0,0,0,0,0,0,0
320,0.6569031,-0.8614201,0.20098221,-0.044042025,-0.10439591,0.109988555,0.10414778,0.06419453,-0.2908955,0,0,0,0,0,0,0,0,0,0,0,0,0,0,0,0,0,0,0,0,0
321,0.6513871,-0.8630326,0.19385776,0.0028296087,-0.08628642,0.06098639,0.33997664,0.039055414,0.23223756,0,0,0,0,0,0,0,0,0,0,0,0,0,0,0,0,0,0,0,0,0
322,0.6508577,-0.8675279,0.19378035,0.05609283,0.037284255,-0.013582122,0.14769232,0.046387658,-0.20395605,0,0,0,0,0,0,0,0,0,0,0,0,0,0,0,0,0,0,0,0,0
323,0.65341127,-0.8703633,0.19812454,0.0028296087,0.04261058,-0.022104237,0.06344634,0.082300685,-0.058807578,0,0,0,0,0,0,0,0,0,0,0,0,0,0,0,0,0,0,0,0,0
324,0.65579075,-0.8729054,0.19962633,-0.013149357,-0.020240024,-0.0039947415,-0.04683657,0.09995792,-0.23388357,0,0,0,0,0,0,0,0,0,0,0,0,0,0,0,0,0,0,0,0,0
325,0.6577015,-0.87503123,0.20081808,0.008155931,-0.02876214,-0.0061252704,-0.07317279,0.049679685,-0.06628946,0,0,0,0,0,0,0,0,0,0,0,0,0,0,0,0,0,0,0,0,0
326,0.6588797,-0.8772362,0.20266448,-0.032324117,0.052197956,-0.030626353,0.08245032,0.10010756,-0.12883797,0,0,0,0,0,0,0,0,0,0,0,0,0,0,0,0,0,0,0,0,0
327,0.662454,-0.8782359,0.2048272,-0.0110188285,-0.07563377,-0.024234766,-0.11507132,0.09142858,0.08843583,0,0,0,0,0,0,0,0,0,0,0,0,0,0,0,0,0,0,0,0,0
328,0.66363215,-0.8809765,0.20438206,0.031591747,-0.029827405,-0.021038972,0.1491887,0.049679685,-0.0525228,0,0,0,0,0,0,0,0,0,0,0,0,0,0,0,0,0,0,0,0,0
329,0.6675912,-0.88339585,0.20951554,0.0145475175,0.05326322,-0.06471481,0.09053075,0.11671733,-0.017806875,0,0,0,0,0,0,0,0,0,0,0,0,0,0,0,0,0,0,0,0,0
330,0.6716175,-0.88555664,0.21245688,0.0049601374,-0.029827405,-0.048735846,-0.16026187,0.048931498,-0.13557167,0,0,0,0,0,0,0,0,0,0,0,0,0,0,0,0,0,0,0,0,0
331,0.675258,-0.8874568,0.21389133,-0.0024967135,-0.00958738,-0.06364955,0.09995792,0.058358666,-0.111779295,0,0,0,0,0,0,0,0,0,0,0,0,0,0,0,0,0,0,0,0,0
332,0.68077594,-0.8886101,0.21910727,0.0017643442,0.04580637,-0.05406217,-0.0104746325,0.09546879,0.052971713,0,0,0,0,0,0,0,0,0,0,0,0,0,0,0,0,0,0,0,0,0
333,0.68320525,-0.8916209,0.22134714,0.033722278,-0.04261058,-0.060453758,0.19183542,0.099060096,-0.21278468,0,0,0,0,0,0,0,0,0,0,0,0,0,0,0,0,0,0,0,0,0
334,0.69110733,-0.8924413,0.22731358,-0.022736738,0.015978966,-0.16591494,0.20171149,0.13362639,-0.11611878,0,0,0,0,0,0,0,0,0,0,0,0,0,0,0,0,0,0,0,0,0
335,0.70050913,-0.8929974,0.23430228,0.015612782,0.06498113,-0.10199907,-0.49814358,0.043245267,0.18959084,0,0,0,0,0,0,0,0,0,0,0,0,0,0,0,0,0,0,0,0,0
336,0.7062676,-0.89610326,0.238593,0.08911603,-0.08522116,-0.047670584,-0.049081136,0.10115502,-0.026186582,0,0,0,0,0,0,0,0,0,0,0,0,0,0,0,0,0,0,0,0,0
337,0.71076334,-0.8992259,0.23882416,0.0390486,-0.08628642,-0.086020105,0.18794483,0.13826515,0.026485857,0,0,0,0,0,0,0,0,0,0,0,0,0,0,0,0,0,0,0,0,0
338,0.7192341,-0.9011308,0.24411921,0.032657012,0.022370553,-0.03914847,-0.44846392,0.045489833,0.14859015,0,0,0,0,0,0,0,0,0,0,0,0,0,0,0,0,0,0,0,0,0
339,0.72181547,-0.903421,0.24551682,0.09337708,-0.035153728,-0.045540053,0.051475335,0.12090719,0.20754737,0,0,0,0,0,0,0,0,0,0,0,0,0,0,0,0,0,0,0,0,0
340,0.72781086,-0.90713197,0.24837406,0.08592024,0.0010652645,-0.038083203,-0.10654198,0.077811554,0.21592706,0,0,0,0,0,0,0,0,0,0,0,0,0,0,0,0,0,0,0,0,0
341,0.73251444,-0.9118519,0.25364077,0.12320449,0.06924219,-0.060453758,0.06374562,0.10220248,0.030974984,0,0,0,0,0,0,0,0,0,0,0,0,0,0,0,0,0,0,0,0,0
342,0.73781085,-0.9170656,0.260961,0.108290784,0.061785337,-0.10199907,0.22296004,0.18959084,-0.15098435,0,0,0,0,0,0,0,0,0,0,0,0,0,0,0,0,0,0,0,0,0
343,0.7422925,-0.9202097,0.26666787,0.11574764,0.1470065,-0.12543489,0.095169514,0.15098435,-0.07032967,0,0,0,0,0,0,0,0,0,0,0,0,0,0,0,0,0,0,0,0,0
344,0.74973404,-0.92495644,0.2795257,0.14024872,0.18109496,-0.1605886,0.22445641,0.17732057,-0.18285716,0,0,0,0,0,0,0,0,0,0,0,0,0,0,0,0,0,0,0,0,0
345,0.7653841,-0.9291937,0.29806295,0.12107396,0.17470336,-0.23196132,-0.122253925,0.11402386,-0.32695818,1,0,0,0,0,0,0,0,0,0,0,0,0,0,0,0,0,0,0,0,0
346,0.7819812,-0.93274,0.315908,0.12640028,0.10546118,-0.17656758,-0.18076223,0.040252518,-0.31244332,1,0,0,0,0,0,0,0,0,0,0,0,0,0,0,0,0,0,0,0,0
347,0.79248613,-0.93609285,0.3252178,0.068876006,-0.014913702,-0.07323693,-0.24331075,-0.080056116,-0.3640683,1,0,0,0,0,0,0,0,0,0,0,0,0,0,0,0,0,0,0,0,0
348,0.8024499,-0.93928564,0.33237955,0.0539623,0.004261058,-0.037017938,-0.57610476,-0.1842039,-0.71122754,1,0,0,0,0,0,0,0,0,0,0,0,0,0,0,0,0,0,0,0,0
349,0.8142898,-0.9401478,0.3412051,0.028395955,0.078829564,0.19947076,-1.3703812,-0.44382513,-0.9648633,1,0,0,0,0,0,0,0,0,0,0,0,0,0,0,0,0,0,0,0,0
350,0.8086121,-0.9422707,0.3276193,0.44704488,-1.0098706,1.9358518,-8.769512,-2.5143607,-1.2116157,1,0,0,0,0,0,0,0,0,0,0,0,0,0,0,0,0,0,0,0,0
351,0.5466735,-0.9681666,0.04791995,0.083789706,-2.663161,8.694955,-30.445118,-9.613019,-8.284087,1,0,0,0,0,0,0,0,0,0,0,0,0,0,0,0,0,0,0,0,0
352,-0.1167993,-0.72949857,-0.5869503,-2.2992067,-4.359062,16.596022,-13.495367,-34.215836,-7.568221,1,0,0,0,0,0,0,0,0,0,0,0,0,0,0,0,0,0,0,0,0
353,-0.5636959,-0.3077481,-0.98033124,-0.50743204,-5.0493536,14.668958,19.83626,-18.795382,-5.207389,1,0,0,0,0,0,0,0,0,0,0,0,0,0,0,0,0,0,0,0,0
354,-0.6589893,-0.14303249,-1.0800298,-1.099719,-3.2575786,8.391355,22.235102,-6.896498,-4.4946647,1,0,0,0,0,0,0,0,0,0,0,0,0,0,0,0,0,0,0,0,0
355,-0.7250304,0.05753999,-1.1705086,-0.4488425,-1.6458335,3.2077775,18.186506,-5.777209,0.65526307,1,0,0,0,0,0,0,0,0,0,0,0,0,0,0,0,0,0,0,0,0
356,-0.7502908,0.08850529,-1.2238381,0.17646772,-1.0130665,-0.27350664,10.621576,-3.0702643,-3.3943794,1,0,0,0,0,0,0,0,0,0,0,0,0,0,0,0,0,0,0,0,0
357,-0.72933793,0.058610264,-1.2303666,-0.6214153,0.15233281,-1.2918994,2.965069,-0.3043629,0.9008184,1,0,0,0,0,0,0,0,0,0,0,0,0,0,0,0,0,0,0,0,0
358,-0.71529704,0.03818144,-1.2332382,-0.54578155,0.07989483,-1.5699334,2.8896518,1.9868882,2.2631192,1,0,0,0,0,0,0,0,0,0,0,0,0,0,0,0,0,0,0,0,0
359,-0.6829253,-0.020195825,-1.2331159,-0.32420656,0.185356,-2.7545075,6.9989996,1.7744027,0.8189666,1,0,0,0,0,0,0,0,0,0,0,0,0,0,0,0,0,0,0,0,0
360,-0.6447601,-0.13787475,-1.2103606,-0.27413914,1.7459683,-5.198224,10.218004,0.22774844,-0.5660791,1,0,0,0,0,0,0,0,0,0,0,0,0,0,0,0,0,0,0,0,0
361,-0.5726346,-0.32665753,-1.0677207,-0.03765044,4.5209823,-7.420366,5.5654716,-2.194585,3.8423944,1,0,0,0,0,0,0,0,0,0,0,0,0,0,0,0,0,0,0,0,0
362,-0.4599598,-0.5609209,-0.8758508,1.3482586,4.056527,-8.635833,-0.70015436,-4.070442,0.667683,1,0,0,0,0,0,0,0,0,0,0,0,0,0,0,0,0,0,0,0,0
363,-0.38992846,-0.6698381,-0.7701369,0.35543212,4.250405,-7.767642,-7.102848,0.5283704,-4.5373116,1,0,0,0,0,0,0,0,0,0,0,0,0,0,0,0,0,0,0,0,0
364,-0.073134355,-0.80785453,-0.44315973,-0.112218946,2.0208066,-6.8003817,-12.1941185,2.2605753,0.017657237,1,0,0,0,0,0,0,0,0,0,0,0,0,0,0,0,0,0,0,0,0
365,0.23051172,-0.8507498,-0.14923827,-0.4456467,2.5566347,-4.077566,-14.481479,-0.4587889,-0.8183681,1,0,0,0,0,0,0,0,0,0,0,0,0,0,0,0,0,0,0,0,0
366,0.38881108,-0.8475886,0.03108916,-0.082391545,1.5233282,-1.9960393,-12.0070715,1.7738042,0.79652095,1,0,0,0,0,0,0,0,0,0,0,0,0,0,0,0,0,0,0,0,0
367,0.48616895,-0.84410477,0.10817146,0.03691807,0.00958738,-1.4484934,-7.775918,0.3660136,-0.15203181,0,0,0,0,0,0,0,0,0,0,0,0,0,0,0,0,0,0,0,0,0
368,0.530619,-0.83922046,0.14023688,-0.31568447,0.6018744,-0.7922904,-8.021324,0.21757308,-0.6907272,0,0,0,0,0,0,0,0,0,0,0,0,0,0,0,0,0,0,0,0,0
369,0.57372075,-0.8258978,0.18604128,-0.066412576,0.31318775,-0.2926814,-7.2201643,0.38337156,1.1680712,0,0,0,0,0,0,0,0,0,0,0,0,0,0,0,0,0,0,0,0,0
370,0.58489525,-0.834008,0.18833111,0.22333935,-0.41864893,-0.17656758,-5.2497363,0.7520786,-0.9292495,0,0,0,0,0,0,0,0,0,0,0,0,0,0,0,0,0,0,0,0,0
371,0.6011852,-0.8327216,0.19421159,-0.23365909,0.080960095,-0.24900556,-5.0906715,0.6756138,-0.9000702,0,0,0,0,0,0,0,0,0,0,0,0,0,0,0,0,0,0,0,0,0
372,0.614423,-0.82654715,0.20486672,-0.115414746,0.15126754,-0.03914847,-5.769428,0.66843116,0.71841013,0,0,0,0,0,0,0,0,0,0,0,0,0,0,0,0,0,0,0,0,0
373,0.609275,-0.8323253,0.20139809,0.1466403,-0.15765913,0.025832662,-4.1461587,0.90171623,-0.4456208,0,0,0,0,0,0,0,0,0,0,0,0,0,0,0,0,0,0,0,0,0
374,0.6147094,-0.8350736,0.20570247,-0.1377853,0.21731395,-0.2479403,-4.148553,1.0274118,-0.6431424,0,0,0,0,0,0,0,0,0,0,0,0,0,0,0,0,0,0,0,0,0
375,0.6349072,-0.8314031,0.22562036,-0.0088883005,0.1768339,-0.15845808,-5.480926,0.9338883,0.27997196,0,0,0,0,0,0,0,0,0,0,0,0,0,0,0,0,0,0,0,0,0
376,0.6376414,-0.83916974,0.22636287,0.1647498,-0.08841695,0.014114753,-4.550779,0.91353756,-0.60468554,0,0,0,0,0,0,0,0,0,0,0,0,0,0,0,0,0,0,0,0,0
377,0.6395969,-0.8443719,0.2272974,-0.007823036,0.00958738,-0.11265171,-4.127155,0.7492355,-0.96426475,0,0,0,0,0,0,0,0,0,0,0,0,0,0,0,0,0,0,0,0,0
378,0.6489605,-0.8445873,0.23390827,-0.08345681,0.037284255,-0.15100123,-4.355801,0.648679,-0.65062433,0,0,0,0,0,0,0,0,0,0,0,0,0,0,0,0,0,0,0,0,0
379,0.6581748,-0.8423745,0.24095336,-0.082391545,0.07456851,-0.055127434,-4.510676,0.48796824,-0.21832126,0,0,0,0,0,0,0,0,0,0,0,0,0,0,0,0,0,0,0,0,0
380,0.66290826,-0.84276956,0.2418241,0.016678046,-0.094808534,-0.03914847,-4.2413282,0.47599724,-0.09142858,0,0,0,0,0,0,0,0,0,0,0,0,0,0,0,0,0,0,0,0,0
381,0.6641691,-0.8455376,0.24108231,0.008155931,-0.09161274,-0.030626353,-3.9224505,0.47689506,-0.46971244,0,0,0,0,0,0,0,0,0,0,0,0,0,0,0,0,0,0,0,0,0
382,0.66845554,-0.8467204,0.24204406,-0.05469467,0.04367584,-0.084954835,-4.0038533,0.45175594,-0.56428343,0,0,0,0,0,0,0,0,0,0,0,0,0,0,0,0,0,0,0,0,0
383,0.67726535,-0.8439497,0.24973848,-0.0717389,0.070307456,-0.1818939,-4.0062475,0.40880993,0.050427873,0,0,0,0,0,0,0,0,0,0,0,0,0,0,0,0,0,0,0,0,0
384,0.6869651,-0.8446202,0.25670284,0.01028646,-0.020240024,-0.06578008,-4.158878,0.43305123,-0.23508067,0,0,0,0,0,0,0,0,0,0,0,0,0,0,0,0,0,0,0,0,0
385,0.688914,-0.84739363,0.25646788,0.016678046,-0.15233281,-0.047670584,-3.827281,0.48931497,-0.6037877,0,0,0,0,0,0,0,0,0,0,0,0,0,0,0,0,0,0,0,0,0
386,0.6977994,-0.8466011,0.25845295,-0.067477845,-0.013848438,-0.13608754,-3.825186,0.47420156,-0.46986207,0,0,0,0,0,0,0,0,0,0,0,0,0,0,0,0,0,0,0,0,0
387,0.7043528,-0.8471297,0.26274967,-0.0056925067,0.022370553,-0.1488707,-4.0203137,0.46941316,-0.22565351,0,0,0,0,0,0,0,0,0,0,0,0,0,0,0,0,0,0,0,0,0
388,0.71393013,-0.8479982,0.2691721,0.020939104,-0.022370553,-0.10519486,-3.8977604,0.37424365,-0.21637598,0,0,0,0,0,0,0,0,0,0,0,0,0,0,0,0,0,0,0,0,0
389,0.7210592,-0.8490251,0.27189314,-0.021671474,-0.029827405,-0.13502227,-3.6415808,0.3000234,-0.41748893,0,0,0,0,0,0,0,0,0,0,0,0,0,0,0,0,0,0,0,0,0
390,0.728359,-0.8492029,0.27549884,0.0049601374,-0.017044231,-0.1818939,-3.6993408,0.27608138,-0.13961188,0,0,0,0,0,0,0,0,0,0,0,0,0,0,0,0,0,0,0,0,0
391,0.745069,-0.85006636,0.2869383,0.052897036,0.011717909,-0.11691277,-3.8741176,0.20560206,-0.20141222,0,0,0,0,0,0,0,0,0,0,0,0,0,0,0,0,0,0,0,0,0
392,0.7493013,-0.8518709,0.2880575,0.047570713,-0.07350325,-0.06897587,-3.5317469,0.19841947,-0.1666963,0,0,0,0,0,0,0,0,0,0,0,0,0,0,0,0,0,0,0,0,0
393,0.7594706,-0.8536533,0.2925915,0.04437492,0.033023197,-0.059388492,-3.840898,0.12330139,-0.19632454,0,0,0,0,0,0,0,0,0,0,0,0,0,0,0,0,0,0,0,0,0
394,0.7655998,-0.8579907,0.2981878,0.15196663,0.046871636,-0.052996904,-3.4042556,0.14469956,-0.33114803,0,0,0,0,0,0,0,0,0,0,0,0,0,0,0,0,0,0,0,0,0
395,0.7714217,-0.86235535,0.30184233,0.05822336,-0.046871636,-0.067910604,-3.1652844,0.20186113,-0.67351884,1,0,0,0,0,0,0,0,0,0,0,0,0,0,0,0,0,0,0,0,0
396,0.7756813,-0.8634528,0.30378085,0.047570713,0.046871636,-0.07856325,-3.221548,0.1575684,-0.06778584,1,0,0,0,0,0,0,0,0,0,0,0,0,0,0,0,0,0,0,0,0
397,0.78434974,-0.8668474,0.3123157,0.11894343,0.099069595,-0.09241169,-3.2386067,0.13781624,-0.30660746,1,0,0,0,0,0,0,0,0,0,0,0,0,0,0,0,0,0,0,0,0
398,0.79762214,-0.8707547,0.32429555,0.097638145,0.11291803,0.045007423,-4.1487026,-0.07870938,-0.8297405,1,0,0,0,0,0,0,0,0,0,0,0,0,0,0,0,0,0,0,0,0
399,0.77568954,-0.8732277,0.31294596,0.23292673,0.350472,2.3545008,-13.128605,-3.6634278,-1.6686089,1,0,0,0,0,0,0,0,0,0,0,0,0,0,0,0,0,0,0,0,0
400,0.67600745,-0.8812429,0.24443156,-0.113284215,-1.1824435,8.11332,-33.13216,-6.69329,-5.455039,1,0,0,0,0,0,0,0,0,0,0,0,0,0,0,0,0,0,0,0,0
401,0.0698068,-0.7788453,-0.32391253,-2.4376912,-7.035006,16.985909,-19.89851,-34.594418,-12.444761,1,0,0,0,0,0,0,0,0,0,0,0,0,0,0,0,0,0,0,0,0
402,-0.49180594,-0.36951458,-0.8576777,-2.3396869,-4.71273,14.293984,23.768288,-13.859585,-9.803658,1,0,0,0,0,0,0,0,0,0,0,0,0,0,0,0,0,0,0,0,0
403,-0.6220971,-0.07623842,-1.0215526,-2.12983,-2.6088326,5.215801,27.828405,0.3048118,-0.56667763,1,0,0,0,0,0,0,0,0,0,0,0,0,0,0,0,0,0,0,0,0
404,-0.6357449,-0.012694328,-1.0475752,-0.8057061,-0.90014845,1.2572783,10.307637,-1.9565117,6.4411507,1,0,0,0,0,0,0,0,0,0,0,0,0,0,0,0,0,0,0,0,0
405,-0.6654941,0.013895651,-1.1001313,0.22866566,-0.7190535,0.3635215,2.9834745,-0.7387609,-1.4185646,1,0,0,0,0,0,0,0,0,0,0,0,0,0,0,0,0,0,0,0,0
406,-0.67402834,0.013055716,-1.1211652,0.0028296087,-0.78509986,-0.12543489,4.783765,1.988983,-0.99733466,1,0,0,0,0,0,0,0,0,0,0,0,0,0,0,0,0,0,0,0,0
407,-0.6608134,-0.010357375,-1.1423367,-0.33912027,-0.13209279,-1.2695289,3.0728083,1.0631752,0.79981303,1,0,0,0,0,0,0,0,0,0,0,0,0,0,0,0,0,0,0,0,0
408,-0.6349598,-0.06944698,-1.130188,-0.14524214,0.9310411,-2.526541,4.1537905,1.1900679,0.9243115,1,0,0,0,0,0,0,0,0,0,0,0,0,0,0,0,0,0,0,0,0
409,-0.6199564,-0.11302937,-1.10942,-0.07813049,2.0559604,-3.6280243,5.2274404,0.42781392,1.55668,1,0,0,0,0,0,0,0,0,0,0,0,0,0,0,0,0,0,0,0,0
410,-0.52728516,-0.3396546,-0.97066283,0.9892645,2.61842,-6.365754,7.522881,-1.0446202,2.186355,1,0,0,0,0,0,0,0,0,0,0,0,0,0,0,0,0,0,0,0,0
411,-0.49900645,-0.44285864,-0.89641094,1.3312143,3.58568,-7.6813555,1.8365023,-2.4949079,-0.020500353,1,0,0,0,0,0,0,0,0,0,0,0,0,0,0,0,0,0,0,0,0
412,-0.3440438,-0.63775265,-0.6870745,0.72614413,3.717773,-7.933823,-2.620304,-1.785027,-2.615815,1,0,0,0,0,0,0,0,0,0,0,0,0,0,0,0,0,0,0,0,0
413,-0.04097568,-0.75708616,-0.39706838,-0.4967794,1.9792613,-6.311425,-11.229854,0.8951322,0.7504326,1,0,0,0,0,0,0,0,0,0,0,0,0,0,0,0,0,0,0,0,0
414,0.11571632,-0.78047687,-0.2816592,-0.31248868,0.7137272,-5.202485,-9.285313,-0.10878654,1.2021885,0,0,0,0,0,0,0,0,0,0,0,0,0,0,0,0,0,0,0,0,0
415,0.36349675,-0.79683673,-0.05967656,-0.5468468,2.8772793,-3.7942057,-10.016742,-0.7616554,-0.38696286,0,0,0,0,0,0,0,0,0,0,0,0,0,0,0,0,0,0,0,0,0
416,0.53389204,-0.7759064,0.14100361,0.0049601374,1.5020229,-2.6341326,-9.907805,0.679654,2.9445689,0,0,0,0,0,0,0,0,0,0,0,0,0,0,0,0,0,0,0,0,0
417,0.6567822,-0.7650373,0.2576812,0.024134897,0.69348717,-1.854359,-10.175207,-0.31019875,-2.0947769,0,0,0,0,0,0,0,0,0,0,0,0,0,0,0,0,0,0,0,0,0
418,0.72302693,-0.7397821,0.32078788,-0.36362135,0.7542072,-1.1161308,-7.8401127,-0.08678981,1.7170916,0,0,0,0,0,0,0,0,0,0,0,0,0,0,0,0,0,0,0,0,0
419,0.7700969,-0.73859537,0.3594581,0.30642998,0.19707392,-0.5803028,-7.4603324,-0.07451953,0.35119945,0,0,0,0,0,0,0,0,0,0,0,0,0,0,0,0,0,0,0,0,0
420,0.79147846,-0.74324495,0.37243557,0.16581507,-0.080960095,-0.36938044,-6.932411,0.07870938,-1.1344028,0,0,0,0,0,0,0,0,0,0,0,0,0,0,0,0,0,0,0,0,0
421,0.80883384,-0.7414707,0.383396,-0.084522076,0.19813919,-0.04660532,-6.877195,-0.058957215,-0.06943185,0,0,0,0,0,0,0,0,0,0,0,0,0,0,0,0,0,0,0,0,0
422,0.8083005,-0.746171,0.38723254,0.13172661,0.092678,0.024767399,-5.0498204,0.14140753,0.54423195,0,0,0,0,0,0,0,0,0,0,0,0,0,0,0,0,0,0,0,0,0
423,0.81922483,-0.75059736,0.3933839,0.028395955,0.054328486,0.016245283,-6.186168,0.15861586,-0.7237971,0,0,0,0,0,0,0,0,0,0,0,0,0,0,0,0,0,0,0,0,0
424,0.818807,-0.7532878,0.3898351,-3.6618466E-4,-0.12996227,0.26658243,-5.8833017,0.14784196,0.1249474,0,0,0,0,0,0,0,0,0,0,0,0,0,0,0,0,0,0,0,0,0
425,0.80686843,-0.7606687,0.37931785,0.066745475,0.014913702,0.13981596,-4.6654015,0.27608138,-0.27727848,0,0,0,0,0,0,0,0,0,0,0,0,0,0,0,0,0,0,0,0,0
426,0.8069074,-0.7654183,0.3800137,-0.0056925067,0.040480047,0.055660065,-5.2157683,0.32650927,-0.3592799,0,0,0,0,0,0,0,0,0,0,0,0,0,0,0,0,0,0,0,0,0
427,0.8048406,-0.76682127,0.37241322,-0.06215152,-0.16724652,0.14194648,-5.2620063,0.28027123,0.26710314,0,0,0,0,0,0,0,0,0,0,0,0,0,0,0,0,0,0,0,0,0
428,0.80210894,-0.7697511,0.36631876,0.018808575,-0.11291803,0.17710021,-4.877737,0.28625673,0.24435821,0,0,0,0,0,0,0,0,0,0,0,0,0,0,0,0,0,0,0,0,0
429,0.79419005,-0.77509785,0.35874885,0.083789706,-0.01917476,0.09614012,-4.371214,0.3390788,0.20754737,0,0,0,0,0,0,0,0,0,0,0,0,0,0,0,0,0,0,0,0,0
430,0.7925977,-0.7805177,0.35757512,0.052897036,0.0053263223,0.07376956,-4.5290813,0.34281975,-0.03007716,0,0,0,0,0,0,0,0,0,0,0,0,0,0,0,0,0,0,0,0,0
431,0.79118305,-0.78621525,0.35108742,0.12426975,-0.18322548,0.15686019,-4.7295957,0.2669535,0.13676877,0,0,0,0,0,0,0,0,0,0,0,0,0,0,0,0,0,0,0,0,0
432,0.7832077,-0.79546356,0.34191334,0.14344451,-0.096939065,0.17816548,-4.245967,0.2645593,-0.23193829,0,0,0,0,0,0,0,0,0,0,0,0,0,0,0,0,0,0,0,0,0
433,0.7824764,-0.8005039,0.34117758,0.08272444,-0.011717909,0.05885586,-4.357447,0.2240075,-0.4695628,0,0,0,0,0,0,0,0,0,0,0,0,0,0,0,0,0,0,0,0,0
434,0.78174984,-0.8048182,0.33790535,0.09231182,-0.17896442,0.078030616,-4.368221,0.16505028,0.14290391,0,0,0,0,0,0,0,0,0,0,0,0,0,0,0,0,0,0,0,0,0
435,0.7785102,-0.81270576,0.328413,0.15303189,-0.26312032,0.1355549,-4.230405,0.13123219,-0.18315643,0,0,0,0,0,0,0,0,0,0,0,0,0,0,0,0,0,0,0,0,0
436,0.77381164,-0.8190774,0.3202688,0.057158094,-0.09161274,0.045007423,-3.91437,0.11806407,-0.35553896,0,0,0,0,0,0,0,0,0,0,0,0,0,0,0,0,0,0,0,0,0
437,0.7783403,-0.8211342,0.32335678,0.027330691,0.02663161,-0.072171666,-4.2990885,0.08948329,-0.026036944,0,0,0,0,0,0,0,0,0,0,0,0,0,0,0,0,0,0,0,0,0
438,0.78485966,-0.8233531,0.32540244,0.097638145,-0.12144014,-0.021038972,-4.6431055,0.027832596,0.03007716,0,0,0,0,0,0,0,0,0,0,0,0,0,0,0,0,0,0,0,0,0
439,0.7836756,-0.82947534,0.31987873,0.110421315,-0.17576863,0.07483482,-3.9395092,0.020051438,-0.17118542,0,0,0,0,0,0,0,0,0,0,0,0,0,0,0,0,0,0,0,0,0
440,0.78676426,-0.8329027,0.31923681,0.013482253,0.024501082,-0.022104237,-4.2148423,0.016460137,-0.19153613,0,0,0,0,0,0,0,0,0,0,0,0,0,0,0,0,0,0,0,0,0
441,0.7907614,-0.83561355,0.32184058,0.045440186,-0.00958738,0.043942157,-4.5305777,0.0068833297,-0.11028291,0,0,0,0,0,0,0,0,0,0,0,0,0,0,0,0,0,0,0,0,0
442,0.78867745,-0.8390298,0.31921446,0.0539623,-0.128897,0.10359696,-3.8181531,0.041748893,-0.18599954,0,0,0,0,0,0,0,0,0,0,0,0,0,0,0,0,0,0,0,0,0
443,0.7826019,-0.8430914,0.31113216,0.026265426,-0.14913702,0.07163903,-3.5286045,0.09771336,-0.015711948,0,0,0,0,0,0,0,0,0,0,0,0,0,0,0,0,0,0,0,0,0
444,0.77928734,-0.84600323,0.30666533,0.01774331,-0.002130529,-0.052996904,-3.297564,0.21143794,-0.012120646,0,0,0,0,0,0,0,0,0,0,0,0,0,0,0,0,0,0,0,0,0
445,0.7876589,-0.846413,0.3153136,0.01774331,0.111852765,-0.072171666,-4.1394253,0.1587655,0.15382746,0,0,0,0,0,0,0,0,0,0,0,0,0,0,0,0,0,0,0,0,0
446,0.7878353,-0.85048205,0.31486636,0.080593914,-0.05752428,0.023702133,-3.6595373,0.025288755,-0.10010756,0,0,0,0,0,0,0,0,0,0,0,0,0,0,0,0,0,0,0,0,0
447,0.78874016,-0.85301214,0.31565702,0.04863598,0.04261058,-0.05406217,-3.4249055,0.0067336923,-0.13302784,0,0,0,0,0,0,0,0,0,0,0,0,0,0,0,0,0,0,0,0,0
448,0.79422575,-0.854862,0.3209131,0.028395955,0.054328486,-0.030626353,-3.7924154,0.052223526,-0.07317279,1,0,0,0,0,0,0,0,0,0,0,0,0,0,0,0,0,0,0,0,0
449,0.79586846,-0.8572676,0.32122192,0.055027567,-0.051132694,0.021571605,-3.53863,-0.04818331,0.05267244,1,0,0,0,0,0,0,0,0,0,0,0,0,0,0,0,0,0,0,0,0
450,0.79268503,-0.861813,0.31876814,0.0720718,-0.035153728,-0.02530003,-2.9100025,0.048632223,-0.29658175,1,0,0,0,0,0,0,0,0,0,0,0,0,0,0,0,0,0,0,0,0
451,0.80014926,-0.86163634,0.32849544,-0.028063059,0.16937704,-0.22556974,-2.8721442,0.07152677,-0.21712416,1,0,0,0,0,0,0,0,0,0,0,0,0,0,0,0,0,0,0,0,0
452,0.8117007,-0.8602538,0.3372554,0.02946122,0.10333065,-0.14780544,-3.9938278,-0.011073183,0.4748001,1,0,0,0,0,0,0,0,0,0,0,0,0,0,0,0,0,0,0,0,0
453,0.8195907,-0.8645162,0.34143412,0.13385713,-0.14168017,0.08548747,-3.6638768,-0.20649989,-0.51340663,1,0,0,0,0,0,0,0,0,0,0,0,0,0,0,0,0,0,0,0,0
454,0.83184755,-0.8689552,0.34614456,0.13385713,-0.09161274,0.4050668,-5.869984,-0.90874916,-1.6346412,1,0,0,0,0,0,0,0,0,0,0,0,0,0,0,0,0,0,0,0,0
455,0.7689482,-0.8768945,0.29610837,0.049701244,-0.18748654,2.8764803,-15.561264,-4.1352353,-3.9029977,1,0,0,0,0,0,0,0,0,0,0,0,0,0,0,0,0,0,0,0,0
456,0.35531572,-0.84452266,-0.06875743,-1.7367471,-2.884736,10.772221,-30.635157,-14.3596735,-10.6019745,1,0,0,0,0,0,0,0,0,0,0,0,0,0,0,0,0,0,0,0,0
457,0.10041186,-0.6910233,-0.41617373,-3.2771196,-5.869607,15.935557,-2.743755,-27.38009,-3.6713586,1,0,0,0,0,0,0,0,0,0,0,0,0,0,0,0,0,0,0,0,0
458,-0.32105893,-0.3523257,-0.7953418,-1.7932062,-3.134008,10.339723,29.280937,-4.8834233,-4.866963,1,0,0,0,0,0,0,0,0,0,0,0,0,0,0,0,0,0,0,0,0
459,-0.4123603,-0.16670197,-0.88893497,-1.9625833,-1.6682041,2.5185513,16.511013,-0.62324065,4.947618,1,0,0,0,0,0,0,0,0,0,0,0,0,0,0,0,0,0,0,0,0
460,-0.45008433,-0.11370883,-0.9454833,-0.22620225,-1.6106799,1.1560782,3.116652,-2.335095,4.6375685,1,0,0,0,0,0,0,0,0,0,0,0,0,0,0,0,0,0,0,0,0
461,-0.47564504,-0.09860266,-0.9701388,0.10083394,-0.65726817,0.89828426,6.702119,2.9873652,0.15083471,1,0,0,0,0,0,0,0,0,0,0,0,0,0,0,0,0,0,0,0,0
462,-0.49139583,-0.10006185,-1.0001273,-0.111153685,-0.58269966,-1.1140003,5.1225443,2.397793,-0.08783727,1,0,0,0,0,0,0,0,0,0,0,0,0,0,0,0,0,0,0,0,0
463,-0.46546444,-0.13968275,-1.0094188,-0.35083818,0.002130529,-1.8394454,2.7837083,0.5419874,1.9473838,1,0,0,0,0,0,0,0,0,0,0,0,0,0,0,0,0,0,0,0,0
464,-0.4289338,-0.20839262,-0.99435514,-0.11861054,0.8202536,-3.4384072,9.001451,0.8963293,1.9473838,1,0,0,0,0,0,0,0,0,0,0,0,0,0,0,0,0,0,0,0,0
465,-0.35417077,-0.3658455,-0.9140029,0.63666195,1.7140105,-6.5372615,6.911312,-1.1143513,5.65675,1,0,0,0,0,0,0,0,0,0,0,0,0,0,0,0,0,0,0,0,0
466,-0.3243019,-0.4639176,-0.8549579,1.2300142,3.3566482,-6.8887987,-2.4203882,-1.9231426,-2.2381296,1,0,0,0,0,0,0,0,0,0,0,0,0,0,0,0,0,0,0,0,0
467,-0.17786747,-0.63526523,-0.65878123,0.58233345,2.3457122,-6.4456487,-2.785504,0.3450643,-0.34641105,1,0,0,0,0,0,0,0,0,0,0,0,0,0,0,0,0,0,0,0,0
468,0.07971616,-0.7719258,-0.44995937,0.71549153,0.89056104,-6.1175475,-8.820089,-0.358831,-2.409016,1,0,0,0,0,0,0,0,0,0,0,0,0,0,0,0,0,0,0,0,0
469,0.31011617,-0.8231105,-0.20338805,-0.29118338,3.4184337,-3.6013927,-10.354773,0.23059155,-1.2524668,1,0,0,0,0,0,0,0,0,0,0,0,0,0,0,0,0,0,0,0,0
470,0.46420908,-0.8332287,-0.016190168,0.19670774,1.6682041,-2.5052357,-6.8604355,1.0030209,0.8343793,1,0,0,0,0,0,0,0,0,0,0,0,0,0,0,0,0,0,0,0,0
471,0.5263007,-0.8415209,0.032328896,0.2276004,0.22370553,-1.5688682,-5.98296,0.112976395,-2.1453543,0,0,0,0,0,0,0,0,0,0,0,0,0,0,0,0,0,0,0,0,0
472,0.60151273,-0.8404987,0.1032119,-0.24218121,0.88416946,-1.0745854,-5.1294274,0.64089787,-1.1421839,0,0,0,0,0,0,0,0,0,0,0,0,0,0,0,0,0,0,0,0,0
473,0.66235405,-0.8299646,0.16632612,-0.032324117,0.48682585,-0.84874946,-5.298967,0.38307226,0.33653498,0,0,0,0,0,0,0,0,0,0,0,0,0,0,0,0,0,0,0,0,0
474,0.69930375,-0.83246523,0.19916536,0.14450978,0.098004326,-0.3853594,-4.892551,0.31109658,-1.3833997,0,0,0,0,0,0,0,0,0,0,0,0,0,0,0,0,0,0,0,0,0
475,0.713608,-0.83251756,0.20741075,-0.07280417,-0.023435818,-0.06897587,-4.357597,0.38411975,-1.2126632,0,0,0,0,0,0,0,0,0,0,0,0,0,0,0,0,0,0,0,0,0
476,0.71119386,-0.8334255,0.2063851,0.018808575,0.11717909,0.06631271,-3.1940148,0.4475661,-0.33399114,0,0,0,0,0,0,0,0,0,0,0,0,0,0,0,0,0,0,0,0,0
477,0.71473163,-0.8383138,0.21361595,0.059288625,0.17789915,-0.030626353,-3.5107975,0.6183026,-1.3525743,0,0,0,0,0,0,0,0,0,0,0,0,0,0,0,0,0,0,0,0,0
478,0.71542895,-0.8415579,0.21358006,0.026265426,-0.1075917,0.15472966,-3.7304654,0.71841013,-0.9724948,0,0,0,0,0,0,0,0,0,0,0,0,0,0,0,0,0,0,0,0,0
479,0.6995155,-0.84632224,0.20104949,0.011351724,-0.05539375,0.124902256,-2.1757307,0.7778163,-1.1128548,0,0,0,0,0,0,0,0,0,0,0,0,0,0,0,0,0,0,0,0,0
480,0.69992244,-0.8479101,0.20165434,-0.11754527,0.07137272,-0.06258429,-2.9706059,0.86520463,-1.042226,0,0,0,0,0,0,0,0,0,0,0,0,0,0,0,0,0,0,0,0,0
481,0.70475566,-0.8460314,0.20550096,-0.05256414,-0.015978966,0.0013315806,-3.4341831,0.94196874,-0.5276222,0,0,0,0,0,0,0,0,0,0,0,0,0,0,0,0,0,0,0,0,0
482,0.70090866,-0.8469225,0.20086968,-0.017410416,-0.07456851,0.07590009,-2.753631,0.8644565,-0.4233248,0,0,0,0,0,0,0,0,0,0,0,0,0,0,0,0,0,0,0,0,0
483,0.6971953,-0.850759,0.19781992,0.016678046,0.013848438,0.07376956,-2.9743466,0.90276366,-0.9982325,0,0,0,0,0,0,0,0,0,0,0,0,0,0,0,0,0,0,0,0,0
484,0.690287,-0.8520507,0.19492239,-0.01634515,0.03195793,0.0045273737,-2.2477064,0.9793781,-0.5361515,0,0,0,0,0,0,0,0,0,0,0,0,0,0,0,0,0,0,0,0,0
485,0.68859255,-0.8529694,0.19555737,-0.017410416,0.11504856,-0.09134643,-2.1761796,0.98536366,-0.23388357,0,0,0,0,0,0,0,0,0,0,0,0,0,0,0,0,0,0,0,0,0
486,0.69317603,-0.85505074,0.20169692,0.07633285,0.004261058,-0.026365295,-2.7440543,0.8963293,-0.46896425,0,0,0,0,0,0,0,0,0,0,0,0,0,0,0,0,0,0,0,0,0
487,0.69282484,-0.860045,0.2009874,0.083789706,0.011717909,0.016245283,-2.6090813,0.77168113,-0.851438,0,0,0,0,0,0,0,0,0,0,0,0,0,0,0,0,0,0,0,0,0
488,0.69320565,-0.8644262,0.20228302,0.095507614,0.0031957934,-0.019973708,-2.4785974,0.6878841,-0.58089316,0,0,0,0,0,0,0,0,0,0,0,0,0,0,0,0,0,0,0,0,0
489,0.6954124,-0.8690797,0.20298022,0.095507614,-0.008522116,0.0045273737,-2.6487353,0.6533178,-0.71721303,0,0,0,0,0,0,0,0,0,0,0,0,0,0,0,0,0,0,0,0,0
490,0.6936662,-0.87390244,0.20172709,0.16688032,-0.05965481,0.0396811,-2.4603415,0.5780501,-0.95004916,0,0,0,0,0,0,0,0,0,0,0,0,0,0,0,0,0,0,0,0,0
491,0.6895215,-0.8810271,0.19823423,0.059288625,-0.07563377,0.005592638,-2.0775685,0.47554833,-1.2036849,0,0,0,0,0,0,0,0,0,0,0,0,0,0,0,0,0,0,0,0,0
492,0.6878653,-0.8830487,0.19639833,-0.022736738,-0.025566347,-0.059388492,-2.0739772,0.56772506,-0.8888474,0,0,0,0,0,0,0,0,0,0,0,0,0,0,0,0,0,0,0,0,0
493,0.69292635,-0.88314426,0.1980872,0.0145475175,-0.06072007,-0.059388492,-2.5523686,0.46941316,-0.3966893,0,0,0,0,0,0,0,0,0,0,0,0,0,0,0,0,0,0,0,0,0
494,0.69134283,-0.8860542,0.19612013,0.059288625,-0.08415589,0.013049489,-2.217779,0.45190558,-0.88241297,0,0,0,0,0,0,0,0,0,0,0,0,0,0,0,0,0,0,0,0,0
495,0.6892428,-0.88974273,0.19301468,0.0539623,-0.11291803,-0.06364955,-2.006341,0.48362875,-0.8901941,0,0,0,0,0,0,0,0,0,0,0,0,0,0,0,0,0,0,0,0,0
496,0.693504,-0.8907584,0.19435197,-0.060020994,0.0031957934,-0.11797804,-2.2146366,0.4261679,-0.8997709,0,0,0,0,0,0,0,0,0,0,0,0,0,0,0,0,0,0,0,0,0
497,0.6992062,-0.8890377,0.20000842,-0.050433613,0.022370553,-0.12010857,-2.2744915,0.439336,-0.47569796,0,0,0,0,0,0,0,0,0,0,0,0,0,0,0,0,0,0,0,0,0
498,0.7061765,-0.8882952,0.20233282,-0.024867266,-0.10013486,-0.12223909,-2.3096564,0.45310268,-0.44202948,0,0,0,0,0,0,0,0,0,0,0,0,0,0,0,0,0,0,0,0,0
499,0.71086615,-0.88903636,0.20333657,0.011351724,-0.05539375,-0.10626013,-2.3178866,0.37813422,-0.5403414,0,0,0,0,0,0,0,0,0,0,0,0,0,0,0,0,0,0,0,0,0
500,0.7125761,-0.88927245,0.2068263,-0.061086256,0.12676647,-0.083889574,-1.9479823,0.4595371,-0.5247791,1,0,0,0,0,0,0,0,0,0,0,0,0,0,0,0,0,0,0,0,0
501,0.7194281,-0.88769174,0.21453722,-0.028063059,0.037284255,-0.16271915,-2.117821,0.4794389,-0.30062196,1,0,0,0,0,0,0,0,0,0,0,0,0,0,0,0,0,0,0,0,0
502,0.72786057,-0.8886146,0.21993783,0.05183177,-0.034088463,-0.14674017,-2.0738275,0.46866497,-0.4631284,1,0,0,0,0,0,0,0,0,0,0,0,0,0,0,0,0,0,0,0,0
503,0.7323402,-0.8894864,0.22601846,-0.0014314491,0.066046394,-0.17443705,-1.6341923,0.59750295,-0.580145,1,0,0,0,0,0,0,0,0,0,0,0,0,0,0,0,0,0,0,0,0
504,0.73722327,-0.88991714,0.23119259,0.028395955,0.039414782,-0.33103094,-1.678485,0.71960723,-0.33354223,1,0,0,0,0,0,0,0,0,0,0,0,0,0,0,0,0,0,0,0,0
505,0.7691573,-0.88851875,0.2532591,0.13705292,-0.020240024,-0.37683728,-3.1121628,0.4770447,-0.31349078,1,0,0,0,0,0,0,0,0,0,0,0,0,0,0,0,0,0,0,0,0
506,0.79130447,-0.88763636,0.25819373,0.2989731,-0.8415589,0.9909622,-12.47828,-0.62608373,-1.1323078,1,0,0,0,0,0,0,0,0,0,0,0,0,0,0,0,0,0,0,0,0
507,0.5676196,-0.9006216,0.039756425,0.3447795,-1.4072143,7.203584,-30.127138,-6.5234513,-6.0006175,1,0,0,0,0,0,0,0,0,0,0,0,0,0,0,0,0,0,0,0,0
508,-0.035479646,-0.70071,-0.48511544,-2.0797625,-3.4386735,15.151523,-20.559908,-28.806286,-10.909928,1,0,0,0,0,0,0,0,0,0,0,0,0,0,0,0,0,0,0,0,0
509,-0.32616797,-0.4999815,-0.7012347,-1.4022542,-2.466087,14.713698,20.399197,-15.762676,-4.0162735,1,0,0,0,0,0,0,0,0,0,0,0,0,0,0,0,0,0,0,0,0
510,-0.58328974,-0.19583255,-0.8738732,-1.8880148,-1.8056232,6.146842,23.534405,-3.2456396,-0.8595184,1,0,0,0,0,0,0,0,0,0,0,0,0,0,0,0,0,0,0,0,0
511,-0.6403794,-0.072285436,-0.9357151,-0.801445,-1.75236,2.2596922,10.41343,-2.4525604,3.8410478,1,0,0,0,0,0,0,0,0,0,0,0,0,0,0,0,0,0,0,0,0
512,-0.6624847,-0.034898423,-0.99952894,-0.3476424,-1.3379722,0.5297027,9.6149645,-0.07032967,-0.2733879,1,0,0,0,0,0,0,0,0,0,0,0,0,0,0,0,0,0,0,0,0
513,-0.6624856,-0.041114867,-1.0186858,-0.23472436,-0.08735168,-1.6487631,6.6506433,1.5869068,1.3051392,1,0,0,0,0,0,0,0,0,0,0,0,0,0,0,0,0,0,0,0,0
514,-0.61745316,-0.0983302,-1.0023519,-0.2666823,0.8873653,-2.7822044,2.5008934,1.0932523,3.104232,1,0,0,0,0,0,0,0,0,0,0,0,0,0,0,0,0,0,0,0,0
515,-0.5607387,-0.18399943,-0.9730187,0.33199632,0.3557983,-3.1326764,-0.4523545,1.4428058,3.9852984,1,0,0,0,0,0,0,0,0,0,0,0,0,0,0,0,0,0,0,0,0
516,-0.526626,-0.2855931,-0.9444981,0.862498,1.1259845,-3.6972666,3.5431192,0.490961,1.117793,1,0,0,0,0,0,0,0,0,0,0,0,0,0,0,0,0,0,0,0,0
517,-0.47280806,-0.40613604,-0.8318936,0.54611444,3.6346822,-4.3023367,1.716493,-0.88405895,-3.2227452,1,0,0,0,0,0,0,0,0,0,0,0,0,0,0,0,0,0,0,0,0
518,-0.39853364,-0.46174726,-0.7531284,0.83054006,0.9235843,-3.936951,-3.19596,0.5813421,3.7753568,1,0,0,0,0,0,0,0,0,0,0,0,0,0,0,0,0,0,0,0,0
519,-0.3443524,-0.5737055,-0.7371257,1.027614,-0.7190535,-4.2501388,3.1289225,-0.027682956,-3.1518168,1,0,0,0,0,0,0,0,0,0,0,0,0,0,0,0,0,0,0,0,0
520,-0.2269404,-0.67916244,-0.62886024,-0.3082276,3.0019152,-4.8370996,-0.317531,-0.8165724,-3.6689644,1,0,0,0,0,0,0,0,0,0,0,0,0,0,0,0,0,0,0,0,0
521,0.014363624,-0.7489756,-0.38875797,0.49285126,2.283927,-4.991563,-2.3575404,-0.23463176,5.9883475,1,0,0,0,0,0,0,0,0,0,0,0,0,0,0,0,0,0,0,0,0
522,0.20204274,-0.85028386,-0.22204936,1.4473282,0.72651035,-4.9542785,-1.0990882,-2.0760722,-2.8597243,1,0,0,0,0,0,0,0,0,0,0,0,0,0,0,0,0,0,0,0,0
523,0.34368068,-0.86969453,-0.07540569,-0.24218121,3.0647657,-4.05413,-4.3052235,-2.8124387,-5.2992663,0,0,0,0,0,0,0,0,0,0,0,0,0,0,0,0,0,0,0,0,0
524,0.5519313,-0.84252566,0.16994628,-0.27200863,1.567004,-2.6256106,-8.669853,-0.90545714,1.5002667,0,0,0,0,0,0,0,0,0,0,0,0,0,0,0,0,0,0,0,0,0
525,0.6547766,-0.83922476,0.24157551,0.43213117,-0.81599253,-1.1725898,-4.634277,-1.1101614,-0.95154554,0,0,0,0,0,0,0,0,0,0,0,0,0,0,0,0,0,0,0,0,0
526,0.7184098,-0.8374237,0.27087957,-0.098370515,-0.034088463,-0.79868203,-3.8010945,-1.2080244,-2.6222494,0,0,0,0,0,0,0,0,0,0,0,0,0,0,0,0,0,0,0,0,0
527,0.7527568,-0.8208787,0.30863735,-0.28053072,0.6125271,-0.38962045,-3.206285,-0.69342065,0.3552397,0,0,0,0,0,0,0,0,0,0,0,0,0,0,0,0,0,0,0,0,0
528,0.7631155,-0.82163376,0.31232423,0.16581507,-0.44101948,-0.08282431,-1.9744682,-0.26007015,0.18525136,0,0,0,0,0,0,0,0,0,0,0,0,0,0,0,0,0,0,0,0,0
529,0.76729035,-0.8294432,0.29793745,-0.034454647,-0.31851405,0.002396845,-1.1143513,-0.13362639,-1.4140754,0,0,0,0,0,0,0,0,0,0,0,0,0,0,0,0,0,0,0,0,0
530,0.77173275,-0.8239242,0.29914024,-0.20702748,0.14807175,-0.09454222,-1.3117232,-0.18480244,-0.17911622,0,0,0,0,0,0,0,0,0,0,0,0,0,0,0,0,0,0,0,0,0
531,0.78079855,-0.8236187,0.30614513,0.07846338,-0.013848438,-0.06578008,-1.5520413,0.07930793,0.078410104,0,0,0,0,0,0,0,0,0,0,0,0,0,0,0,0,0,0,0,0,0
532,0.7836554,-0.82927346,0.30697984,0.013482253,-0.12676647,0.087618,-1.4921862,0.24570495,-1.3844471,0,0,0,0,0,0,0,0,0,0,0,0,0,0,0,0,0,0,0,0,0
533,0.77944237,-0.8293971,0.3000613,-0.16654743,-0.08841695,0.06524745,-1.0597335,0.15203181,-0.55605334,0,0,0,0,0,0,0,0,0,0,0,0,0,0,0,0,0,0,0,0,0
534,0.77352023,-0.8284489,0.29417223,-0.053629406,-0.027696876,0.04181163,-0.8037036,0.2311901,-0.1551742,0,0,0,0,0,0,0,0,0,0,0,0,0,0,0,0,0,0,0,0,0
535,0.7749393,-0.82927597,0.29723108,-0.0898484,0.1374191,-0.038083203,-1.0452187,0.3302502,-0.6717232,0,0,0,0,0,0,0,0,0,0,0,0,0,0,0,0,0,0,0,0,0
536,0.77550775,-0.82770616,0.29733428,-0.07280417,-0.06391586,0.0045273737,-1.1158476,0.36975452,0.050128598,0,0,0,0,0,0,0,0,0,0,0,0,0,0,0,0,0,0,0,0,0
537,0.7744849,-0.82911885,0.29454613,-0.060020994,-0.067111656,0.06524745,-1.0304046,0.34326866,-0.26126727,0,0,0,0,0,0,0,0,0,0,0,0,0,0,0,0,0,0,0,0,0
538,0.77047104,-0.829935,0.28986958,0.022004368,-0.025566347,-0.012516857,-0.6193501,0.29628247,-0.011971008,0,0,0,0,0,0,0,0,0,0,0,0,0,0,0,0,0,0,0,0,0
539,0.7710041,-0.8325597,0.29049706,0.040113863,-0.0053263223,-0.070041135,-0.5695207,0.27473465,-0.20425533,0,0,0,0,0,0,0,0,0,0,0,0,0,0,0,0,0,0,0,0,0
540,0.7768899,-0.8339136,0.29426914,0.0028296087,-0.0010652645,-0.052996904,-1.0938509,0.17657238,-0.24615386,0,0,0,0,0,0,0,0,0,0,0,0,0,0,0,0,0,0,0,0,0
541,0.77550405,-0.8370342,0.29195386,0.033722278,-0.049002163,0.05672533,-0.9334394,0.11342531,-0.45295304,0,0,0,0,0,0,0,0,0,0,0,0,0,0,0,0,0,0,0,0,0
542,0.77307886,-0.8392075,0.28996813,0.013482253,-0.052197956,-0.06151902,-0.38277298,0.15891513,-0.39818567,0,0,0,0,0,0,0,0,0,0,0,0,0,0,0,0,0,0,0,0,0
543,0.7778487,-0.83915544,0.2923175,-0.06321678,0.0,-0.084954835,-0.8216601,0.14948797,-0.18435353,0,0,0,0,0,0,0,0,0,0,0,0,0,0,0,0,0,0,0,0,0
544,0.78332543,-0.83959997,0.29497516,0.01774331,0.0,-0.03914847,-1.0634744,0.08723872,-0.25498247,0,0,0,0,0,0,0,0,0,0,0,0,0,0,0,0,0,0,0,0,0
545,0.7833148,-0.84203714,0.29372475,0.020939104,-0.070307456,0.037550572,-0.9400234,0.07885902,-0.3302502,0,0,0,0,0,0,0,0,0,0,0,0,0,0,0,0,0,0,0,0,0
546,0.783727,-0.84423697,0.29083398,0.027330691,-0.10013486,-0.03488741,-0.66379243,0.1503858,-0.16804303,0,0,0,0,0,0,0,0,0,0,0,0,0,0,0,0,0,0,0,0,0
547,0.786409,-0.8457361,0.2913693,0.034787543,-0.011717909,-0.06684534,-0.8319851,0.1479916,-0.15801731,0,0,0,0,0,0,0,0,0,0,0,0,0,0,0,0,0,0,0,0,0
548,0.7906489,-0.8476864,0.2939884,0.0390486,-0.011717909,-0.058323227,-0.8619126,0.17672202,-0.17597382,0,0,0,0,0,0,0,0,0,0,0,0,0,0,0,0,0,0,0,0,0
549,0.79415464,-0.84957004,0.2960605,0.05076651,-0.017044231,-0.07749799,-0.720954,0.18450317,-0.042347442,0,0,0,0,0,0,0,0,0,0,0,0,0,0,0,0,0,0,0,0,0
550,0.8025083,-0.85158825,0.3013553,0.079528645,-0.00958738,-0.18295917,-0.62728083,0.26246437,0.07811083,0,0,0,0,0,0,0,0,0,0,0,0,0,0,0,0,0,0,0,0,0
551,0.80982965,-0.85309035,0.3065192,0.13598767,0.061785337,-0.19467707,-0.89109194,0.27234045,0.1666963,0,0,0,0,0,0,0,0,0,0,0,0,0,0,0,0,0,0,0,0,0
552,0.8192501,-0.85727835,0.31539539,0.21694776,0.02130529,-0.2500708,-0.37992987,0.43275195,0.36900634,0,0,0,0,0,0,0,0,0,0,0,0,0,0,0,0,0,0,0,0,0
553,0.84096223,-0.86293125,0.3336047,0.2819289,0.15126754,-0.37790257,-0.88046765,0.3628712,0.044592008,0,0,0,0,0,0,0,0,0,0,0,0,0,0,0,0,0,0,0,0,0
554,0.8674895,-0.87014383,0.35825992,0.39378166,0.17576863,-0.38322887,-0.8257003,0.15008652,0.11267712,1,0,0,0,0,0,0,0,0,0,0,0,0,0,0,0,0,0,0,0,0
555,0.8937948,-0.8801147,0.38678595,0.36395425,0.26418558,-0.28415927,-1.1119571,0.09546879,-0.65316814,1,0,0,0,0,0,0,0,0,0,0,0,0,0,0,0,0,0,0,0,0
556,0.9033535,-0.8845346,0.39608076,0.2574278,0.047936898,-0.1637844,-1.0437223,-0.02184709,-0.52747256,1,0,0,0,0,0,0,0,0,0,0,0,0,0,0,0,0,0,0,0,0
557,0.91942656,-0.8910513,0.41018644,0.3202784,0.17789915,-0.33422673,-0.4086603,-0.0062847794,-0.008529344,1,0,0,0,0,0,0,0,0,0,0,0,0,0,0,0,0,0,0,0,0
558,0.9480675,-0.8979243,0.44137827,0.37354162,0.370712,-0.2926814,-1.1472715,-0.33848026,-0.48437694,1,0,0,0,0,0,0,0,0,0,0,0,0,0,0,0,0,0,0,0,0
559,0.9737729,-0.9090433,0.47489652,0.43319643,0.40799627,-0.14567491,-1.3145664,-0.6702268,-1.2686276,1,0,0,0,0,0,0,0,0,0,0,0,0,0,0,0,0,0,0,0,0
560,0.997736,-0.9165875,0.5109978,0.4374575,0.4708469,0.48922268,-6.06586,-2.2480059,-3.2725744,1,0,0,0,0,0,0,0,0,0,0,0,0,0,0,0,0,0,0,0,0
561,0.9552449,-0.92347455,0.48169005,-0.3678824,1.1547467,5.3468285,-25.184309,-8.493132,-8.892215,1,0,0,0,0,0,0,0,0,0,0,0,0,0,0,0,0,0,0,0,0
562,0.46234715,-0.94365406,0.11385992,-2.1010675,-2.8293424,13.808224,-28.616995,-27.19873,-14.863204,1,0,0,0,0,0,0,0,0,0,0,0,0,0,0,0,0,0,0,0,0
563,-0.34436667,-0.6034997,-0.6052486,-4.941063,-4.8192563,19.045063,-2.2890065,-36.44783,-2.5793035,1,0,0,0,0,0,0,0,0,0,0,0,0,0,0,0,0,0,0,0,0
564,-0.69176316,-0.15543681,-0.89622915,-3.3825808,-4.217382,12.856943,34.52424,-16.658556,-3.4855087,1,0,0,0,0,0,0,0,0,0,0,0,0,0,0,0,0,0,0,0,0
565,-0.7492781,0.038566172,-0.9932567,-1.9583222,-1.7438378,3.4378746,26.792164,-6.4300776,2.3234231,1,0,0,0,0,0,0,0,0,0,0,0,0,0,0,0,0,0,0,0,0
566,-0.7631633,0.05502685,-1.0231023,-0.24111594,-0.93636745,-0.24048345,7.490559,-5.8050413,0.09995792,1,0,0,0,0,0,0,0,0,0,0,0,0,0,0,0,0,0,0,0,0
567,-0.75306475,0.055039447,-1.0313624,-0.4584299,0.26312032,-0.012516857,2.2598271,0.9141361,1.6837224,1,0,0,0,0,0,0,0,0,0,0,0,0,0,0,0,0,0,0,0,0
568,-0.7385525,0.05306425,-1.0402807,-0.5404552,-0.24288028,-0.45779738,4.2853217,4.257639,0.9271546,1,0,0,0,0,0,0,0,0,0,0,0,0,0,0,0,0,0,0,0,0
569,-0.70265347,0.025291838,-1.0447038,-0.5244763,0.15233281,-1.4421017,3.6471174,0.73487025,2.444031,1,0,0,0,0,0,0,0,0,0,0,0,0,0,0,0,0,0,0,0,0
570,-0.6879344,0.0011054286,-1.0387671,0.22546987,0.7904262,-2.1260016,4.9003325,-0.44023383,2.976292,1,0,0,0,0,0,0,0,0,0,0,0,0,0,0,0,0,0,0,0,0
571,-0.6621586,-0.08290661,-1.0030893,0.9423928,1.4711301,-3.699397,10.188525,0.50517654,3.9867947,1,0,0,0,0,0,0,0,0,0,0,0,0,0,0,0,0,0,0,0,0
572,-0.62569743,-0.24974196,-0.9403963,2.07903,2.288188,-6.8142304,11.575965,-1.6244658,2.104952,1,0,0,0,0,0,0,0,0,0,0,0,0,0,0,0,0,0,0,0,0
573,-0.53668165,-0.48800528,-0.7940937,2.381565,4.3121905,-8.084025,0.08723872,-3.9324763,-1.8384476,1,0,0,0,0,0,0,0,0,0,0,0,0,0,0,0,0,0,0,0,0
574,-0.36117148,-0.688566,-0.57012576,1.4782208,2.5161545,-7.9711075,-2.2619221,1.3584102,0.55814826,1,0,0,0,0,0,0,0,0,0,0,0,0,0,0,0,0,0,0,0,0
575,-0.1660527,-0.7579772,-0.40888143,1.1533152,0.3653857,-8.170312,-7.476643,-3.6813843,-3.530849,1,0,0,0,0,0,0,0,0,0,0,0,0,0,0,0,0,0,0,0,0
576,0.2014823,-0.82455444,-0.066167,-0.36362135,4.7148604,-5.272793,-16.786497,-0.33189622,0.22325931,1,0,0,0,0,0,0,0,0,0,0,0,0,0,0,0,0,0,0,0,0
577,0.42172268,-0.8232533,0.18982321,1.1224226,0.5954828,-2.3912523,-15.163527,0.22580315,1.496376,0,0,0,0,0,0,0,0,0,0,0,0,0,0,0,0,0,0,0,0,0
578,0.5159227,-0.84258074,0.24419399,0.37034583,-0.53263223,-0.83063996,-10.00896,-0.4340987,-3.9393597,0,0,0,0,0,0,0,0,0,0,0,0,0,0,0,0,0,0,0,0,0
579,0.5686038,-0.8261157,0.2736018,-0.37640452,0.098004326,-0.71985245,-8.566005,-0.3333926,0.62698156,0,0,0,0,0,0,0,0,0,0,0,0,0,0,0,0,0,0,0,0,0
580,0.59446675,-0.82234037,0.2854254,0.13385713,-0.004261058,-0.18935075,-8.532486,0.110731825,2.186804,0,0,0,0,0,0,0,0,0,0,0,0,0,0,0,0,0,0,0,0,0
581,0.5961218,-0.8358128,0.28065577,0.2755373,-0.34621093,0.09720538,-5.7698765,0.50981534,-0.3628712,0,0,0,0,0,0,0,0,0,0,0,0,0,0,0,0,0,0,0,0,0
582,0.60153466,-0.8393953,0.27273297,-0.09091366,-0.10865697,-0.21278657,-5.499481,0.39264908,-0.055216275,0,0,0,0,0,0,0,0,0,0,0,0,0,0,0,0,0,0,0,0,0
583,0.61815244,-0.83998287,0.28322107,0.07846338,0.07989483,-0.16804546,-6.347627,0.20500351,0.53016603,0,0,0,0,0,0,0,0,0,0,0,0,0,0,0,0,0,0,0,0,0
584,0.62796557,-0.84678257,0.28978288,0.08485497,-0.018109495,-0.09667274,-6.037578,0.33189622,-0.42990884,0,0,0,0,0,0,0,0,0,0,0,0,0,0,0,0,0,0,0,0,0
585,0.63601774,-0.8485188,0.29271707,-0.06428205,-0.044741105,-0.12863068,-6.130952,0.5638345,0.028431145,0,0,0,0,0,0,0,0,0,0,0,0,0,0,0,0,0,0,0,0,0
586,0.6449656,-0.8488314,0.29574,0.04650545,0.027696876,-0.055127434,-6.0498486,0.45744216,0.3907038,0,0,0,0,0,0,0,0,0,0,0,0,0,0,0,0,0,0,0,0,0
587,0.64842135,-0.8517355,0.30141065,-0.044042025,0.13848437,-0.1041296,-5.308244,0.621445,0.18644845,0,0,0,0,0,0,0,0,0,0,0,0,0,0,0,0,0,0,0,0,0
588,0.66125107,-0.85064393,0.3127978,-0.08878313,0.109722234,-0.19574234,-5.9606643,0.6657377,0.084694885,0,0,0,0,0,0,0,0,0,0,0,0,0,0,0,0,0,0,0,0,0
589,0.6704032,-0.8508603,0.31828654,-0.034454647,0.010652645,-0.08815063,-6.1056633,0.5220856,0.3309984,0,0,0,0,0,0,0,0,0,0,0,0,0,0,0,0,0,0,0,0,0
590,0.6730744,-0.85200924,0.31934476,-0.09943578,0.058589544,-0.027430559,-5.3597198,0.614412,0.109534726,0,0,0,0,0,0,0,0,0,0,0,0,0,0,0,0,0,0,0,0,0
591,0.67755127,-0.8508577,0.32012022,-0.04510729,-0.07989483,-0.0561927,-5.3627124,0.5861305,0.6397008,0,0,0,0,0,0,0,0,0,0,0,0,0,0,0,0,0,0,0,0,0
592,0.6790088,-0.8504808,0.31723043,-0.06854311,-0.02663161,-0.047670584,-4.904223,0.6124667,0.8467992,0,0,0,0,0,0,0,0,0,0,0,0,0,0,0,0,0,0,0,0,0
593,0.68297404,-0.85253507,0.31834483,0.026265426,0.014913702,-0.038083203,-5.070021,0.5161001,0.53899467,0,0,0,0,0,0,0,0,0,0,0,0,0,0,0,0,0,0,0,0,0
594,0.68480754,-0.8557056,0.31935412,0.047570713,0.02876214,-0.098803274,-4.7008653,0.28670564,0.1297358,0,0,0,0,0,0,0,0,0,0,0,0,0,0,0,0,0,0,0,0,0
595,0.6894606,-0.8572871,0.32369554,-0.09410945,0.056459013,-0.09773801,-4.634127,0.28760347,0.05925649,0,0,0,0,0,0,0,0,0,0,0,0,0,0,0,0,0,0,0,0,0
596,0.69744116,-0.85590184,0.32711288,-0.0110188285,-0.03195793,-0.12330436,-4.942979,0.19901802,0.4818331,0,0,0,0,0,0,0,0,0,0,0,0,0,0,0,0,0,0,0,0,0
597,0.70458853,-0.8578041,0.33046758,0.024134897,-0.025566347,-0.09667274,-4.734384,0.19348143,0.085891984,0,0,0,0,0,0,0,0,0,0,0,0,0,0,0,0,0,0,0,0,0
598,0.7064233,-0.8569617,0.33098593,-0.08878313,0.02130529,-0.07962851,-4.407875,0.21293432,0.3254618,0,0,0,0,0,0,0,0,0,0,0,0,0,0,0,0,0,0,0,0,0
599,0.71164876,-0.8577027,0.33388203,-0.012084093,0.01917476,-0.17337179,-4.4551606,0.17582418,0.33369187,0,0,0,0,0,0,0,0,0,0,0,0,0,0,0,0,0,0,0,0,0
600,0.7232838,-0.85757357,0.34072393,6.9907977E-4,0.008522116,-0.20213392,-4.613178,0.16505028,0.22355859,0,0,0,0,0,0,0,0,0,0,0,0,0,0,0,0,0,0,0,0,0
601,0.73287785,-0.8566974,0.34648716,-0.020606209,-0.025566347,-0.21385184,-4.2486606,0.22056583,0.37618893,0,0,0,0,0,0,0,0,0,0,0,0,0,0,0,0,0,0,0,0,0
602,0.7475355,-0.8562364,0.3549884,0.02946122,-0.010652645,-0.21385184,-4.661511,0.1110311,0.32531217,0,0,0,0,0,0,0,0,0,0,0,0,0,0,0,0,0,0,0,0,0
603,0.7584671,-0.8584363,0.36158597,0.066745475,-0.066046394,-0.24474451,-3.9317281,0.11447277,-0.06404489,0,0,0,0,0,0,0,0,0,0,0,0,0,0,0,0,0,0,0,0,0
604,0.7709499,-0.857874,0.3681552,-0.019540945,0.023435818,-0.30120352,-4.667945,0.041449618,0.23523031,0,0,0,0,0,0,0,0,0,0,0,0,0,0,0,0,0,0,0,0,0
605,0.78688395,-0.8576538,0.3788842,0.07846338,-0.01917476,-0.17550232,-4.595371,0.0070329676,0.15906477,0,0,0,0,0,0,0,0,0,0,0,0,0,0,0,0,0,0,0,0,0
606,0.79552764,-0.8594117,0.3828257,0.0539623,-0.06924219,-0.19467707,-3.7427359,-0.024091655,0.2527379,0,0,0,0,0,0,0,0,0,0,0,0,0,0,0,0,0,0,0,0,0
607,0.8131062,-0.8592804,0.39608207,0.033722278,0.13954964,-0.20852551,-4.383484,-0.20829555,0.03696049,0,0,0,0,0,0,0,0,0,0,0,0,0,0,0,0,0,0,0,0,0
608,0.82039803,-0.8606879,0.4043164,0.047570713,0.35792884,0.03222425,-4.588188,-0.20111294,0.096815534,0,0,0,0,0,0,0,0,0,0,0,0,0,0,0,0,0,0,0,0,0
609,0.8207699,-0.8644941,0.41289377,0.08805076,0.10013486,0.005592638,-3.7427359,-0.1798644,0.3633201,1,0,0,0,0,0,0,0,0,0,0,0,0,0,0,0,0,0,0,0,0
610,0.8249696,-0.86880517,0.4165425,0.045440186,0.030892668,-0.09773801,-3.6275148,-0.17088614,-0.26919806,1,0,0,0,0,0,0,0,0,0,0,0,0,0,0,0,0,0,0,0,0
611,0.83912367,-0.86782163,0.42835638,0.034787543,0.16618125,-0.24900556,-3.8435915,-0.2916437,0.15218145,1,0,0,0,0,0,0,0,0,0,0,0,0,0,0,0,0,0,0,0,0
612,0.85019857,-0.86950105,0.44121826,0.110421315,0.08735168,-0.22343922,-3.4856584,-0.22460605,-0.030974984,1,0,0,0,0,0,0,0,0,0,0,0,0,0,0,0,0,0,0,0,0
613,0.86020887,-0.87069994,0.44844952,0.064614944,0.08735168,-0.40133837,-3.3265936,-0.25662848,-0.28491,1,0,0,0,0,0,0,0,0,0,0,0,0,0,0,0,0,0,0,0,0
614,0.9020504,-0.8634435,0.48064417,0.21375197,-0.014913702,-0.11265171,-7.1754227,-1.1050737,-0.6955156,1,0,0,0,0,0,0,0,0,0,0,0,0,0,0,0,0,0,0,0,0
615,0.8675453,-0.8789905,0.43032542,0.41508695,-1.2271847,3.4772894,-20.605698,-4.679617,-0.51834464,1,0,0,0,0,0,0,0,0,0,0,0,0,0,0,0,0,0,0,0,0
616,0.4011535,-0.927743,-0.026968826,0.34051844,-4.0213733,12.697153,-39.159863,-17.125576,-7.896975,1,0,0,0,0,0,0,0,0,0,0,0,0,0,0,0,0,0,0,0,0
617,-0.33945706,-0.5843985,-0.7815652,-3.1162646,-5.0131345,18.24079,-7.3097973,-37.692966,-14.944307,1,0,0,0,0,0,0,0,0,0,0,0,0,0,0,0,0,0,0,0,0
618,-0.53572214,-0.34303123,-0.94556224,-0.95590836,-3.6911411,12.250807,30.467115,-6.3516674,-6.4891844,1,0,0,0,0,0,0,0,0,0,0,0,0,0,0,0,0,0,0,0,0
619,-0.6376057,-0.10208263,-1.0360215,-2.666723,0.35792884,2.1691446,15.886426,-5.8153663,6.8656726,1,0,0,0,0,0,0,0,0,0,0,0,0,0,0,0,0,0,0,0,0
620,-0.67506856,-0.04114646,-1.0727975,0.43852276,-1.385909,1.7462347,2.05632,-2.691382,-1.0402806,1,0,0,0,0,0,0,0,0,0,0,0,0,0,0,0,0,0,0,0,0
621,-0.711554,-1.511703E-4,-1.1073672,0.09018129,-0.74675035,1.1496866,8.5182705,3.0104094,-2.110489,1,0,0,0,0,0,0,0,0,0,0,0,0,0,0,0,0,0,0,0,0
622,-0.7026574,-0.0064068697,-1.130214,-0.6650912,-0.16085494,-0.8380968,5.5570917,1.254861,-0.480636,1,0,0,0,0,0,0,0,0,0,0,0,0,0,0,0,0,0,0,0,0
623,-0.6750633,-0.02360241,-1.1150367,-0.75776917,0.79894835,-1.773399,1.3253403,1.0405799,5.2343235,1,0,0,0,0,0,0,0,0,0,0,0,0,0,0,0,0,0,0,0,0
624,-0.6430869,-0.07607057,-1.0888388,0.10722552,0.82131886,-2.0620856,3.916465,0.51909286,1.9529204,1,0,0,0,0,0,0,0,0,0,0,0,0,0,0,0,0,0,0,0,0
625,-0.6159958,-0.16334793,-1.0444754,0.31921315,1.9004318,-3.6471992,8.630649,0.96800566,0.49126026,1,0,0,0,0,0,0,0,0,0,0,0,0,0,0,0,0,0,0,0,0
626,-0.55606997,-0.31663626,-0.9296907,0.69951254,3.2661006,-5.810751,4.42643,-0.9377789,0.98446584,1,0,0,0,0,0,0,0,0,0,0,0,0,0,0,0,0,0,0,0,0
627,-0.52284116,-0.40202558,-0.8497713,1.3887386,3.3427997,-5.916212,-1.055394,-0.20964229,2.4735096,1,0,0,0,0,0,0,0,0,0,0,0,0,0,0,0,0,0,0,0,0
628,-0.42973873,-0.5736697,-0.7163715,1.5293535,1.808819,-6.9356704,4.746954,1.3406034,-1.9234418,1,0,0,0,0,0,0,0,0,0,0,0,0,0,0,0,0,0,0,0,0
629,-0.24041913,-0.73041606,-0.505025,0.5407882,2.3467774,-8.014783,-4.1665096,-3.951181,-3.9960723,1,0,0,0,0,0,0,0,0,0,0,0,0,0,0,0,0,0,0,0,0
630,0.09834091,-0.80548716,-0.16836071,-0.13458951,3.4621093,-5.9247346,-10.811616,0.33324295,0.42841247,1,0,0,0,0,0,0,0,0,0,0,0,0,0,0,0,0,0,0,0,0
631,0.37642315,-0.8296154,0.07555582,0.8923254,0.5805691,-4.7934237,-9.141361,-1.3162124,0.3859154,1,0,0,0,0,0,0,0,0,0,0,0,0,0,0,0,0,0,0,0,0
632,0.50485945,-0.8284487,0.17250428,0.045440186,0.98323905,-2.6043053,-11.193641,-1.794903,-3.0148985,1,0,0,0,0,0,0,0,0,0,0,0,0,0,0,0,0,0,0,0,0
633,0.6236725,-0.8095217,0.27639994,0.047570713,0.14913702,-1.2673984,-9.108292,-0.8456021,-0.10354923,0,0,0,0,0,0,0,0,0,0,0,0,0,0,0,0,0,0,0,0,0
634,0.6863035,-0.8081946,0.30605105,0.4076301,-0.41545314,-0.58243334,-6.3130608,-1.1659763,-0.44891283,0,0,0,0,0,0,0,0,0,0,0,0,0,0,0,0,0,0,0,0,0
635,0.7151868,-0.81295764,0.32022458,0.06354968,0.056459013,-0.09454222,-5.35538,-0.5470751,-1.5119383,0,0,0,0,0,0,0,0,0,0,0,0,0,0,0,0,0,0,0,0,0
636,0.7253797,-0.8146421,0.32393846,0.07420233,-0.05006743,0.021571605,-3.9879918,-0.42197806,-0.31064767,0,0,0,0,0,0,0,0,0,0,0,0,0,0,0,0,0,0,0,0,0
637,0.7300794,-0.8189954,0.32584313,0.13066134,0.039414782,0.09614012,-3.4995747,-0.24600422,-0.85413146,0,0,0,0,0,0,0,0,0,0,0,0,0,0,0,0,0,0,0,0,0
638,0.7341842,-0.8257275,0.3331657,0.07313706,0.21305288,-0.058323227,-3.0491655,-0.12090719,-1.3545196,0,0,0,0,0,0,0,0,0,0,0,0,0,0,0,0,0,0,0,0,0
639,0.747774,-0.8275271,0.3491254,0.025200162,0.15978967,-0.043409526,-3.865738,-0.17402853,-1.1641805,0,0,0,0,0,0,0,0,0,0,0,0,0,0,0,0,0,0,0,0,0
640,0.75135624,-0.83077,0.3506402,0.020939104,-0.09054748,0.04287689,-3.2875383,0.037858315,-1.0899603,0,0,0,0,0,0,0,0,0,0,0,0,0,0,0,0,0,0,0,0,0
641,0.758765,-0.8323262,0.35640866,0.023069633,0.10226539,-0.086020105,-3.0111575,0.037858315,-0.74758947,0,0,0,0,0,0,0,0,0,0,0,0,0,0,0,0,0,0,0,0,0
642,0.76613164,-0.8333589,0.36262107,-0.01847568,0.15765913,-0.13928333,-3.0087633,0.03546411,-0.88645315,0,0,0,0,0,0,0,0,0,0,0,0,0,0,0,0,0,0,0,0,0
643,0.7776969,-0.83233947,0.37408936,-0.034454647,0.11930962,-0.08175904,-3.4289458,0.13003507,-0.6099229,0,0,0,0,0,0,0,0,0,0,0,0,0,0,0,0,0,0,0,0,0
644,0.7842063,-0.8333289,0.37955156,0.019873839,0.035153728,-7.9894834E-4,-3.0813377,0.044292733,-0.6175544,0,0,0,0,0,0,0,0,0,0,0,0,0,0,0,0,0,0,0,0,0
645,0.78336054,-0.835515,0.37780714,-0.015279886,-0.052197956,0.04181163,-2.4408886,-0.04189853,-0.52896893,0,0,0,0,0,0,0,0,0,0,0,0,0,0,0,0,0,0,0,0,0
646,0.78561026,-0.8375538,0.37742478,-0.042976763,-0.03834952,-0.06471481,-2.379986,0.012569559,-0.8153753,0,0,0,0,0,0,0,0,0,0,0,0,0,0,0,0,0,0,0,0,0
647,0.794375,-0.8343968,0.3813392,-0.061086256,0.07456851,-0.06578008,-2.9330468,-0.026934769,-0.05641338,0,0,0,0,0,0,0,0,0,0,0,0,0,0,0,0,0,0,0,0,0
648,0.79621845,-0.8362059,0.383988,0.028395955,0.013848438,0.03542004,-2.4278703,-0.034117375,-0.5137059,0,0,0,0,0,0,0,0,0,0,0,0,0,0,0,0,0,0,0,0,0
649,0.79827356,-0.8376144,0.38249195,-0.08878313,-0.078829564,0.029028455,-2.4751556,-0.026635494,-0.87313545,0,0,0,0,0,0,0,0,0,0,0,0,0,0,0,0,0,0,0,0,0
650,0.79889625,-0.83499265,0.37849873,-0.12180633,-0.04367584,0.08974853,-2.8283005,-0.02184709,-0.062698156,0,0,0,0,0,0,0,0,0,0,0,0,0,0,0,0,0,0,0,0,0
651,0.79486066,-0.8374144,0.37496644,0.041179128,-0.07669904,0.12170646,-2.0771196,0.043993454,-0.47614688,0,0,0,0,0,0,0,0,0,0,0,0,0,0,0,0,0,0,0,0,0
652,0.79248184,-0.8406747,0.37092564,-0.048303083,-0.00958738,-0.041278996,-1.9517233,0.083497785,-0.8213608,0,0,0,0,0,0,0,0,0,0,0,0,0,0,0,0,0,0,0,0,0
653,0.7974585,-0.8381498,0.37457374,-0.05895573,0.06072007,-0.07749799,-2.363526,0.069132574,-0.13661914,0,0,0,0,0,0,0,0,0,0,0,0,0,0,0,0,0,0,0,0,0
654,0.8022915,-0.8389613,0.3790596,0.025200162,0.024501082,-0.04980111,-2.336741,0.061052144,-0.4421791,0,0,0,0,0,0,0,0,0,0,0,0,0,0,0,0,0,0,0,0,0
655,0.8079646,-0.839464,0.3828327,-0.009953564,-0.011717909,-0.13289174,-1.9623476,0.05626374,-0.633416,0,0,0,0,0,0,0,0,0,0,0,0,0,0,0,0,0,0,0,0,0
656,0.8169022,-0.8383637,0.3875314,-0.028063059,0.06924219,-0.18935075,-2.3844752,-0.050278235,-0.24974516,0,0,0,0,0,0,0,0,0,0,0,0,0,0,0,0,0,0,0,0,0
657,0.8284962,-0.83746606,0.39855158,0.03691807,0.109722234,-0.1605886,-2.3282115,-0.049081136,-0.4281132,0,0,0,0,0,0,0,0,0,0,0,0,0,0,0,0,0,0,0,0,0
658,0.839386,-0.8365956,0.40729538,-0.003561978,0.015978966,-0.18295917,-2.1606174,-0.014065935,-0.34237084,1,0,0,0,0,0,0,0,0,0,0,0,0,0,0,0,0,0,0,0,0
659,0.8515203,-0.83663094,0.4146477,0.06781074,-0.0010652645,-0.17869811,-2.144307,-0.08334815,-0.31244332,1,0,0,0,0,0,0,0,0,0,0,0,0,0,0,0,0,0,0,0,0
660,0.8600898,-0.8378451,0.42117393,0.025200162,0.099069595,-0.2926814,-1.9933226,-0.0199018,-0.7767688,1,0,0,0,0,0,0,0,0,0,0,0,0,0,0,0,0,0,0,0,0
661,0.87648773,-0.8341943,0.43497643,-0.004627242,0.067111656,-0.3491404,-1.939453,0.04833295,-0.12315175,1,0,0,0,0,0,0,0,0,0,0,0,0,0,0,0,0,0,0,0,0
662,0.89771265,-0.8313723,0.4499583,0.11468238,0.01917476,-0.45886266,-1.7751509,0.107140526,-0.1575684,1,0,0,0,0,0,0,0,0,0,0,0,0,0,0,0,0,0,0,0,0
663,0.93789583,-0.8282818,0.47935435,0.25103623,0.12783173,-0.48336375,-3.1362545,-0.3115455,-0.54049104,1,0,0,0,0,0,0,0,0,0,0,0,0,0,0,0,0,0,0,0,0
664,0.9659214,-0.824768,0.4965541,0.39484692,-0.6604639,0.59361863,-10.123882,-1.0634744,-0.9736919,1,0,0,0,0,0,0,0,0,0,0,0,0,0,0,0,0,0,0,0,0
665,0.9031219,-0.85388446,0.39496908,0.862498,-2.2104237,7.093862,-29.008148,-7.144747,-2.195932,1,0,0,0,0,0,0,0,0,0,0,0,0,0,0,0,0,0,0,0,0
666,0.3458039,-0.88852406,-0.12486355,-0.4786699,-3.782754,15.86525,-25.142859,-30.757261,-13.5296335,1,0,0,0,0,0,0,0,0,0,0,0,0,0,0,0,0,0,0,0,0
667,-0.38501984,-0.5465245,-0.7226395,-2.0243685,-2.799515,18.252506,5.554249,-29.422943,2.838775,1,0,0,0,0,0,0,0,0,0,0,0,0,0,0,0,0,0,0,0,0
668,-0.7431134,-0.14549898,-0.94530445,-1.4640396,-2.356365,11.832158,28.29303,-10.8129635,-5.8253922,1,0,0,0,0,0,0,0,0,0,0,0,0,0,0,0,0,0,0,0,0
669,-0.8097781,-0.027261019,-0.99494964,-1.2946625,-1.381648,3.9140477,26.273521,-7.4634748,-4.700117,1,0,0,0,0,0,0,0,0,0,0,0,0,0,0,0,0,0,0,0,0
670,-0.8319997,0.0648199,-1.0509665,-0.5692174,-1.2825783,-0.06684534,11.5155115,-3.4753335,-1.9449896,1,0,0,0,0,0,0,0,0,0,0,0,0,0,0,0,0,0,0,0,0
671,-0.8126962,0.054935794,-1.074406,-0.6011753,0.31212246,-1.2450278,3.4431612,0.11207857,2.0171149,1,0,0,0,0,0,0,0,0,0,0,0,0,0,0,0,0,0,0,0,0
672,-0.7741843,0.015588139,-1.0727512,-0.4701478,-0.0127831735,-1.8064221,3.4252048,3.418471,3.1651347,1,0,0,0,0,0,0,0,0,0,0,0,0,0,0,0,0,0,0,0,0
673,-0.75310063,-0.015017519,-1.0789541,-0.33059815,-0.53795856,-2.7108316,4.1636662,2.01098,2.2472575,1,0,0,0,0,0,0,0,0,0,0,0,0,0,0,0,0,0,0,0,0
674,-0.7053517,-0.10527392,-1.0927116,-0.45949516,0.90654004,-4.009389,5.7351604,-0.50023854,0.24720132,1,0,0,0,0,0,0,0,0,0,0,0,0,0,0,0,0,0,0,0,0
675,-0.61183834,-0.23525849,-1.0027899,0.40017325,2.7782097,-5.5391088,1.59798,-0.70374566,7.41185,1,0,0,0,0,0,0,0,0,0,0,0,0,0,0,0,0,0,0,0,0
676,-0.5488566,-0.4066247,-0.89507645,1.7381454,2.183792,-6.242183,3.5818753,-0.2515408,0.4985925,1,0,0,0,0,0,0,0,0,0,0,0,0,0,0,0,0,0,0,0,0
677,-0.44097653,-0.59710217,-0.766432,0.84651905,3.170227,-7.2616415,0.547524,-2.5227404,-7.297377,1,0,0,0,0,0,0,0,0,0,0,0,0,0,0,0,0,0,0,0,0
678,-0.2876023,-0.67313653,-0.62642556,-0.21448433,3.2426648,-6.661897,-7.811831,0.50353056,0.6657377,1,0,0,0,0,0,0,0,0,0,0,0,0,0,0,0,0,0,0,0,0
679,-0.03325455,-0.7766352,-0.38084352,0.6590325,1.5765914,-5.951366,-5.494543,-0.0016460137,1.5496471,0,0,0,0,0,0,0,0,0,0,0,0,0,0,0,0,0,0,0,0,0
680,0.2723462,-0.83944696,-0.11329311,0.20416458,2.1784658,-5.0032806,-12.947693,-1.2609961,-2.168548,0,0,0,0,0,0,0,0,0,0,0,0,0,0,0,0,0,0,0,0,0
681,0.48442596,-0.8304208,0.1343791,-0.3114234,3.045591,-2.748116,-11.749246,-1.6177322,-0.60917467,0,0,0,0,0,0,0,0,0,0,0,0,0,0,0,0,0,0,0,0,0
682,0.58011544,-0.82003427,0.21356334,0.36715004,-0.7968178,-1.0383666,-9.060557,-0.5319617,1.5049055,0,0,0,0,0,0,0,0,0,0,0,0,0,0,0,0,0,0,0,0,0
683,0.6186187,-0.8283564,0.22603813,0.12426975,-0.33981934,-0.5089301,-7.632416,-0.6983587,-2.5448868,0,0,0,0,0,0,0,0,0,0,0,0,0,0,0,0,0,0,0,0,0
684,0.65420085,-0.8199195,0.24391547,-0.446712,0.3206446,-0.1605886,-6.4035916,-0.6760627,0.9876082,0,0,0,0,0,0,0,0,0,0,0,0,0,0,0,0,0,0,0,0,0
685,0.66066206,-0.8123638,0.24245492,0.13705292,-0.44421527,0.16644756,-5.1334677,-0.44023383,1.4772224,0,0,0,0,0,0,0,0,0,0,0,0,0,0,0,0,0,0,0,0,0
686,0.6553222,-0.82038456,0.22654958,0.06141915,-0.27696875,0.09933591,-3.9341223,-0.15322891,-0.4412813,0,0,0,0,0,0,0,0,0,0,0,0,0,0,0,0,0,0,0,0,0
687,0.65942436,-0.8166781,0.22971933,-0.09410945,0.1257012,-0.037017938,-4.4307694,0.033518825,1.149965,0,0,0,0,0,0,0,0,0,0,0,0,0,0,0,0,0,0,0,0,0
688,0.6629135,-0.81981647,0.23171212,0.1018992,-0.049002163,0.091879055,-4.619014,-0.02633622,0.22385786,0,0,0,0,0,0,0,0,0,0,0,0,0,0,0,0,0,0,0,0,0
689,0.6584163,-0.825,0.22605562,-0.017410416,-0.047936898,-0.0061252704,-3.733159,0.089782566,-0.05746084,0,0,0,0,0,0,0,0,0,0,0,0,0,0,0,0,0,0,0,0,0
690,0.6657829,-0.82381576,0.23022127,-0.042976763,0.056459013,-0.12436962,-4.1012673,0.050128598,0.7065888,0,0,0,0,0,0,0,0,0,0,0,0,0,0,0,0,0,0,0,0,0
691,0.66992897,-0.82759535,0.232364,0.09444235,-0.054328486,-0.022104237,-4.0002623,0.124049574,0.39564183,0,0,0,0,0,0,0,0,0,0,0,0,0,0,0,0,0,0,0,0,0
692,0.6727753,-0.8321012,0.23414248,-0.024867266,0.046871636,-0.05725796,-3.8548143,0.14320318,-0.32351652,0,0,0,0,0,0,0,0,0,0,0,0,0,0,0,0,0,0,0,0,0
693,0.67587256,-0.8318398,0.23775876,-0.014214622,0.011717909,-0.17656758,-3.4382234,0.1683423,0.50727147,0,0,0,0,0,0,0,0,0,0,0,0,0,0,0,0,0,0,0,0,0
694,0.6899797,-0.83046407,0.24695267,-0.05149888,-0.004261058,-0.19148128,-4.010587,0.09307459,0.63640875,0,0,0,0,0,0,0,0,0,0,0,0,0,0,0,0,0,0,0,0,0
695,0.7013055,-0.8315033,0.25330997,0.066745475,-0.004261058,0.019441076,-4.2275615,0.037708677,0.2124854,0,0,0,0,0,0,0,0,0,0,0,0,0,0,0,0,0,0,0,0,0
696,0.6969491,-0.83622664,0.24927756,0.057158094,-0.058589544,0.06098639,-3.1874306,-0.0034416649,0.020350715,0,0,0,0,0,0,0,0,0,0,0,0,0,0,0,0,0,0,0,0,0
697,0.70173216,-0.8363855,0.25460818,-0.06428205,0.1470065,-0.14460965,-3.2544682,-0.033369187,0.2801216,0,0,0,0,0,0,0,0,0,0,0,0,0,0,0,0,0,0,0,0,0
698,0.7063805,-0.8359475,0.26017413,-0.020606209,0.12676647,-0.12543489,-3.427599,-0.041000705,0.5633856,0,0,0,0,0,0,0,0,0,0,0,0,0,0,0,0,0,0,0,0,0
699,0.7140413,-0.8374191,0.266679,0.049701244,-0.008522116,-0.10839066,-3.3815107,-0.08948329,0.12808979,0,0,0,0,0,0,0,0,0,0,0,0,0,0,0,0,0,0,0,0,0
700,0.71983004,-0.83927906,0.2699992,0.026265426,-0.03621899,-0.12117383,-3.1169512,-0.1731307,0.037708677,0,0,0,0,0,0,0,0,0,0,0,0,0,0,0,0,0,0,0,0,0
701,0.72797716,-0.83940846,0.27624592,-0.03125885,0.046871636,-0.15739281,-3.2486324,-0.1491887,-0.037708677,0,0,0,0,0,0,0,0,0,0,0,0,0,0,0,0,0,0,0,0,0
702,0.7356107,-0.83766115,0.28111306,-0.053629406,0.07350325,-0.16911073,-3.3951275,-0.14529811,0.75611883,0,0,0,0,0,0,0,0,0,0,0,0,0,0,0,0,0,0,0,0,0
703,0.7439415,-0.83860725,0.28636327,0.16688032,-0.098004326,-0.098803274,-3.1474774,-0.20380642,0.5744588,0,0,0,0,0,0,0,0,0,0,0,0,0,0,0,0,0,0,0,0,0
704,0.7515854,-0.8457627,0.29000297,0.11574764,-0.08948221,-0.16271915,-2.7944822,-0.2415151,-0.63416415,0,0,0,0,0,0,0,0,0,0,0,0,0,0,0,0,0,0,0,0,0
705,0.7626304,-0.84445417,0.29687405,-0.03551991,0.004261058,-0.262854,-2.9165866,-0.26426002,0.23133974,0,0,0,0,0,0,0,0,0,0,0,0,0,0,0,0,0,0,0,0,0
706,0.7794215,-0.84226227,0.30988222,0.028395955,0.01917476,-0.39388153,-2.857779,-0.20320787,0.43305123,0,0,0,0,0,0,0,0,0,0,0,0,0,0,0,0,0,0,0,0,0
707,0.79280746,-0.84185076,0.3181174,0.04863598,-0.014913702,-0.36938044,-3.2005987,-0.32606035,0.2662053,0,0,0,0,0,0,0,0,0,0,0,0,0,0,0,0,0,0,0,0,0
708,0.8133548,-0.8413626,0.33185768,0.110421315,0.004261058,-0.3853594,-3.0162451,-0.30570963,0.2901473,0,0,0,0,0,0,0,0,0,0,0,0,0,0,0,0,0,0,0,0,0
709,0.8371329,-0.8409726,0.35182822,0.10296447,0.1470065,-0.48869005,-2.7489924,-0.31648353,0.20799628,0,0,0,0,0,0,0,0,0,0,0,0,0,0,0,0,0,0,0,0,0
710,0.8678974,-0.8397158,0.37707767,0.111486584,0.06498113,-0.5270396,-3.2984617,-0.30570963,-0.15951368,0,0,0,0,0,0,0,0,0,0,0,0,0,0,0,0,0,0,0,0,0
711,0.8849992,-0.83777845,0.38781086,0.04650545,-0.0010652645,-0.4514058,-3.1350574,-0.4679168,0.32366616,0,0,0,0,0,0,0,0,0,0,0,0,0,0,0,0,0,0,0,0,0
712,0.9092823,-0.83582765,0.40468147,0.13385713,-0.018109495,-0.39281625,-3.0237272,-0.51101243,0.18001404,1,0,0,0,0,0,0,0,0,0,0,0,0,0,0,0,0,0,0,0,0
713,0.9329171,-0.83641016,0.42142883,0.12320449,0.0053263223,-0.3821636,-2.9885623,-0.58777654,-0.37618893,1,0,0,0,0,0,0,0,0,0,0,0,0,0,0,0,0,0,0,0,0
714,0.9512303,-0.8346183,0.437953,0.08805076,0.07350325,-0.46738476,-2.2055087,-0.5243302,0.05686229,1,0,0,0,0,0,0,0,0,0,0,0,0,0,0,0,0,0,0,0,0
715,0.9802338,-0.8287044,0.46175048,0.10935605,0.03621899,-0.7880294,-2.1827638,-0.33758244,0.45789108,1,0,0,0,0,0,0,0,0,0,0,0,0,0,0,0,0,0,0,0,0
716,1.0022507,-0.8251339,0.47791165,0.22546987,-0.01917476,-0.94675374,-2.2526445,-0.31857845,0.54303485,1,0,0,0,0,0,0,0,0,0,0,0,0,0,0,0,0,0,0,0,0
717,1.0627867,-0.8186973,0.5199104,0.37673742,-0.010652645,-0.98084223,-3.5503018,-0.90994626,-1.0251672,1,0,0,0,0,0,0,0,0,0,0,0,0,0,0,0,0,0,0,0,0
718,1.1146084,-0.80800736,0.5635969,0.3682153,0.14594123,0.12809804,-12.105832,-2.9285576,-1.2190976,1,0,0,0,0,0,0,0,0,0,0,0,0,0,0,0,0,0,0,0,0
719,0.9573954,-0.86623013,0.46659756,0.031591747,0.9725864,7.1364727,-36.863224,-9.341127,-3.1048307,1,0,0,0,0,0,0,0,0,0,0,0,0,0,0,0,0,0,0,0,0
720,0.17369226,-0.8620719,-0.23468883,-1.4565827,-4.7074037,17.370468,-33.384598,-39.775772,-19.822344,1,0,0,0,0,0,0,0,0,0,0,0,0,0,0,0,0,0,0,0,0
721,-0.2636329,-0.62160873,-0.59435123,-3.870472,-4.0181775,20.696224,20.5843,-38.8959,2.4389434,1,0,0,0,0,0,0,0,0,0,0,0,0,0,0,0,0,0,0,0,0
722,-0.6656519,-0.18684722,-0.8869741,-2.7444873,-2.3787355,8.6512785,30.829088,-9.856929,-5.2913356,1,0,0,0,0,0,0,0,0,0,0,0,0,0,0,0,0,0,0,0,0
723,-0.7373054,-0.008768814,-0.9200269,-1.4374079,-0.680704,3.6104474,7.124097,-10.53329,3.2882864,1,0,0,0,0,0,0,0,0,0,0,0,0,0,0,0,0,0,0,0,0
724,-0.79123133,0.09406842,-0.95867026,-0.43392882,-1.0322412,2.9052424,9.311649,-0.33653498,1.0621277,1,0,0,0,0,0,0,0,0,0,0,0,0,0,0,0,0,0,0,0,0
725,-0.80921274,0.11978908,-0.9841035,-0.5681521,-0.6317018,0.7054714,6.48275,0.82704705,-0.2817676,1,0,0,0,0,0,0,0,0,0,0,0,0,0,0,0,0,0,0,0,0
726,-0.7840835,0.13926362,-1.0000628,-0.7844008,-0.58483016,-0.18935075,1.295712,1.0556933,5.5445223,1,0,0,0,0,0,0,0,0,0,0,0,0,0,0,0,0,0,0,0,0
727,-0.765608,0.1326417,-1.0258775,-0.096239984,-0.44315,-0.78057253,6.093094,0.1455974,2.5429416,1,0,0,0,0,0,0,0,0,0,0,0,0,0,0,0,0,0,0,0,0
728,-0.74676716,0.07381102,-1.0418354,0.4576975,0.03195793,-2.7779434,9.582942,-0.24226329,1.7621324,1,0,0,0,0,0,0,0,0,0,0,0,0,0,0,0,0,0,0,0,0
729,-0.69436896,-0.065851174,-1.0140966,0.6110956,1.4082795,-5.273858,11.817929,-0.88390934,1.8650831,1,0,0,0,0,0,0,0,0,0,0,0,0,0,0,0,0,0,0,0,0
730,-0.67311144,-0.16249605,-0.9730917,1.5751599,2.312689,-8.223575,8.418312,-2.627786,6.580763,1,0,0,0,0,0,0,0,0,0,0,0,0,0,0,0,0,0,0,0,0
731,-0.57129437,-0.42887703,-0.885165,2.4891567,1.7214673,-9.573265,1.8689737,-5.2636523,-3.4105403,1,0,0,0,0,0,0,0,0,0,0,0,0,0,0,0,0,0,0,0,0
732,-0.3170469,-0.66713387,-0.65873635,0.34584475,3.5302863,-8.164986,-8.781932,-0.7661445,-1.7357962,1,0,0,0,0,0,0,0,0,0,0,0,0,0,0,0,0,0,0,0,0
733,-0.008821782,-0.8001873,-0.38531843,0.88912964,1.2708604,-6.3796024,-12.257115,2.3463178,1.3215994,1,0,0,0,0,0,0,0,0,0,0,0,0,0,0,0,0,0,0,0,0
734,0.23758084,-0.85870564,-0.15703432,0.4587628,1.4977617,-3.8219025,-16.20695,0.9638158,-3.757101,1,0,0,0,0,0,0,0,0,0,0,0,0,0,0,0,0,0,0,0,0
735,0.31915602,-0.86297685,-0.08268358,0.12853082,0.5539375,-1.7062873,-11.443686,2.262371,0.073621705,1,0,0,0,0,0,0,0,0,0,0,0,0,0,0,0,0,0,0,0,0
736,0.41101688,-0.87421453,-0.011030606,0.33625737,0.0063915867,-1.2130699,-8.969278,2.1067479,-0.3333926,1,0,0,0,0,0,0,0,0,0,0,0,0,0,0,0,0,0,0,0,0
737,0.4780114,-0.88370997,0.04378564,0.13066134,0.30786142,-0.7411577,-8.469638,1.4393641,-1.3425486,1,0,0,0,0,0,0,0,0,0,0,0,0,0,0,0,0,0,0,0,0
738,0.5121869,-0.8855717,0.071032405,0.066745475,-0.039414782,-0.28096348,-7.814824,1.8607436,-0.0688333,1,0,0,0,0,0,0,0,0,0,0,0,0,0,0,0,0,0,0,0,0
739,0.5157828,-0.890833,0.06727512,0.12107396,-0.18429075,-0.05725796,-5.8644476,1.5491982,-0.19812019,0,0,0,0,0,0,0,0,0,0,0,0,0,0,0,0,0,0,0,0,0
740,0.52485734,-0.89536345,0.07419075,-0.033389382,0.1438107,-0.29907298,-5.9346275,1.6045641,-1.316811,0,0,0,0,0,0,0,0,0,0,0,0,0,0,0,0,0,0,0,0,0
741,0.5479438,-0.8915802,0.09865055,-0.25496438,0.2790993,-0.070041135,-7.3831196,1.8092684,-0.7565677,0,0,0,0,0,0,0,0,0,0,0,0,0,0,0,0,0,0,0,0,0
742,0.5394149,-0.8859716,0.09911094,-0.25922543,0.109722234,0.13875069,-5.647922,1.7471687,-0.5847838,0,0,0,0,0,0,0,0,0,0,0,0,0,0,0,0,0,0,0,0,0
743,0.53589904,-0.8796032,0.10168511,-0.3199455,0.19281286,-0.10519486,-5.184494,1.8463784,-1.0567408,0,0,0,0,0,0,0,0,0,0,0,0,0,0,0,0,0,0,0,0,0
744,0.5465979,-0.875129,0.11233055,-0.31355393,0.27377295,-0.23941818,-5.946,1.814356,-0.3402759,0,0,0,0,0,0,0,0,0,0,0,0,0,0,0,0,0,0,0,0,0
745,0.559566,-0.86852676,0.1252707,-0.15802532,-0.02130529,-0.11158645,-6.1004257,1.8921676,-0.37858313,0,0,0,0,0,0,0,0,0,0,0,0,0,0,0,0,0,0,0,0,0
746,0.56430787,-0.86663413,0.12322212,-0.09304419,-0.23861924,-0.09986854,-5.5119014,2.0250456,-0.52133745,0,0,0,0,0,0,0,0,0,0,0,0,0,0,0,0,0,0,0,0,0
747,0.57188845,-0.86509115,0.124770604,-0.10263157,-0.04261058,-0.2000034,-5.207239,1.9437925,-0.46701896,0,0,0,0,0,0,0,0,0,0,0,0,0,0,0,0,0,0,0,0,0
748,0.5846831,-0.8637954,0.1308187,-0.0898484,-0.10120012,-0.11797804,-5.9630585,1.7919103,-0.48078564,0,0,0,0,0,0,0,0,0,0,0,0,0,0,0,0,0,0,0,0,0
749,0.5810971,-0.86369914,0.1253577,-0.1377853,-0.26631612,-0.08175904,-4.8006735,2.022951,-0.25692776,0,0,0,0,0,0,0,0,0,0,0,0,0,0,0,0,0,0,0,0,0
750,0.5851744,-0.86013794,0.12098768,-0.15163374,-0.1736381,-0.20746025,-4.794389,1.8077719,-0.11836334,0,0,0,0,0,0,0,0,0,0,0,0,0,0,0,0,0,0,0,0,0
751,0.59491086,-0.8552974,0.124793604,-0.22620225,-0.078829564,-0.22876553,-4.954651,1.5269021,-0.41314942,0,0,0,0,0,0,0,0,0,0,0,0,0,0,0,0,0,0,0,0,0
752,0.6049642,-0.8462032,0.12521665,-0.3870572,-0.3685815,-0.24580976,-4.9797897,1.3582605,-0.68010294,0,0,0,0,0,0,0,0,0,0,0,0,0,0,0,0,0,0,0,0,0
753,0.6164247,-0.834993,0.11532613,-0.31248868,-0.57098174,-0.21811289,-5.0336595,1.2732664,0.07287352,0,0,0,0,0,0,0,0,0,0,0,0,0,0,0,0,0,0,0,0,0
754,0.62197095,-0.83272064,0.10902761,-0.19424431,-0.6050702,-0.23941818,-4.897639,1.2141595,0.079457566,0,0,0,0,0,0,0,0,0,0,0,0,0,0,0,0,0,0,0,0,0
755,0.6306282,-0.8262176,0.098645054,-0.27200863,-0.40266997,-0.22770028,-4.687248,1.2050316,-0.018854339,0,0,0,0,0,0,0,0,0,0,0,0,0,0,0,0,0,0,0,0,0
756,0.6380077,-0.81429803,0.09402978,-0.35722977,-0.39414784,-0.4812332,-3.558981,1.3202527,0.59017074,0,0,0,0,0,0,0,0,0,0,0,0,0,0,0,0,0,0,0,0,0
757,0.6693687,-0.80915767,0.09483694,-3.6618466E-4,-0.7115966,-0.58669436,-4.8542438,1.0556933,0.06943185,0,0,0,0,0,0,0,0,0,0,0,0,0,0,0,0,0,0,0,0,0
758,0.69069386,-0.80903506,0.098320365,-0.10369683,-0.2993393,-0.38109836,-5.021988,0.9068039,-0.5377976,0,0,0,0,0,0,0,0,0,0,0,0,0,0,0,0,0,0,0,0,0
759,0.69766426,-0.80545783,0.10157494,-0.30290127,-0.21092236,-0.28096348,-4.638766,0.713921,0.1539771,0,0,0,0,0,0,0,0,0,0,0,0,0,0,0,0,0,0,0,0,0
760,0.7165309,-0.796376,0.10022099,-0.12074106,-0.6583334,-0.36298886,-4.8542438,0.65526307,0.8147768,0,0,0,0,0,0,0,0,0,0,0,0,0,0,0,0,0,0,0,0,0
761,0.7345224,-0.7981908,0.08517862,0.1860551,-0.8266452,-0.22024342,-4.9558477,0.4691139,0.5931635,0,0,0,0,0,0,0,0,0,0,0,0,0,0,0,0,0,0,0,0,0
762,0.73918986,-0.80679494,0.07012757,0.19564247,-0.50173956,-0.09241169,-4.5289316,0.58672905,0.20051439,0,0,0,0,0,0,0,0,0,0,0,0,0,0,0,0,0,0,0,0,0
763,0.73845285,-0.8102499,0.06710309,0.025200162,-0.21837921,-0.10732539,-4.3086653,0.59989715,-0.034117375,0,0,0,0,0,0,0,0,0,0,0,0,0,0,0,0,0,0,0,0,0
764,0.74129486,-0.81153274,0.061802164,0.003894873,-0.4516721,-0.18722022,-4.1747394,0.58418524,0.49530047,0,0,0,0,0,0,0,0,0,0,0,0,0,0,0,0,0,0,0,0,0
765,0.7478881,-0.8130925,0.05375102,0.07739812,-0.4303668,-0.14674017,-4.348319,0.4309563,0.43544543,0,0,0,0,0,0,0,0,0,0,0,0,0,0,0,0,0,0,0,0,0
766,0.7585036,-0.82098293,0.058092114,0.27766782,-0.109722234,-0.32037827,-4.4614453,1.5629648,0.71811086,0,0,0,0,0,0,0,0,0,0,0,0,0,0,0,0,0,0,0,0,0
767,0.7563473,-0.8302598,0.049599398,0.17859824,-0.36751622,-0.05406217,-4.1633673,0.50592476,-0.11387422,0,0,0,0,0,0,0,0,0,0,0,0,0,0,0,0,0,0,0,0,0
768,0.74941677,-0.8339476,0.045582302,0.11361711,-0.17576863,-0.013582122,-3.6938043,0.46462476,0.45444942,0,0,0,0,0,0,0,0,0,0,0,0,0,0,0,0,0,0,0,0,0
769,0.746759,-0.83962005,0.046350356,0.06354968,0.17576863,0.048203215,-4.042011,0.51475334,-0.09561843,0,0,0,0,0,0,0,0,0,0,0,0,0,0,0,0,0,0,0,0,0
770,0.73748934,-0.84232503,0.051966373,-0.0056925067,0.24607608,0.13981596,-4.010886,0.32920274,0.03127426,0,0,0,0,0,0,0,0,0,0,0,0,0,0,0,0,0,0,0,0,0
771,0.72335625,-0.8465316,0.051227346,0.09018129,0.18002969,0.32943302,-4.186561,0.24361002,-0.23373394,0,0,0,0,0,0,0,0,0,0,0,0,0,0,0,0,0,0,0,0,0
772,0.70034343,-0.85157514,0.043102767,0.06354968,0.16618125,0.42424157,-3.8370075,0.62698156,0.046986207,0,0,0,0,0,0,0,0,0,0,0,0,0,0,0,0,0,0,0,0,0
773,0.68414617,-0.8534987,0.037890125,0.032657012,0.31531826,0.63409865,-3.8932712,0.38097733,0.372448,0,0,0,0,0,0,0,0,0,0,0,0,0,0,0,0,0,0,0,0,0
774,0.6450936,-0.8565999,0.023250425,0.006025402,0.24181503,0.61598915,-3.4000657,0.23373394,0.14859015,0,0,0,0,0,0,0,0,0,0,0,0,0,0,0,0,0,0,0,0,0
775,0.6153842,-0.858303,0.0058037057,0.047570713,-0.007456851,0.5297027,-3.510199,0.6183026,0.34685996,0,0,0,0,0,0,0,0,0,0,0,0,0,0,0,0,0,0,0,0,0
776,0.57886016,-0.8604214,-0.01867166,0.05076651,-0.061785337,0.5989449,-3.3800142,0.28580782,0.39339727,0,0,0,0,0,0,0,0,0,0,0,0,0,0,0,0,0,0,0,0,0
777,0.5468081,-0.8606129,-0.032754235,0.028395955,0.24501082,0.38269624,-2.6089318,-0.025887307,0.48213238,0,0,0,0,0,0,0,0,0,0,0,0,0,0,0,0,0,0,0,0,0
778,0.53563946,-0.8620477,-0.035004012,0.10935605,0.10333065,0.29534456,-3.4876037,1.0383353,0.7718308,0,0,0,0,0,0,0,0,0,0,0,0,0,0,0,0,0,0,0,0,0
779,0.5238443,-0.86874384,-0.043507863,0.2606236,-0.1075917,0.21864553,-3.6248214,0.6609493,0.34611177,0,0,0,0,0,0,0,0,0,0,0,0,0,0,0,0,0,0,0,0,0
780,0.5025227,-0.8783406,-0.056374773,0.16688032,0.037284255,0.34647724,-3.2427967,0.80310506,-0.30690673,0,0,0,0,0,0,0,0,0,0,0,0,0,0,0,0,0,0,0,0,0
781,0.48497975,-0.87738216,-0.06673031,-0.10582736,0.0628506,0.30812773,-3.2613516,0.67905545,-0.036661215,0,0,0,0,0,0,0,0,0,0,0,0,0,0,0,0,0,0,0,0,0
782,0.47465813,-0.8751886,-0.071991235,-0.2155496,0.066046394,0.37950045,-3.1560068,0.55096567,0.18360534,0,0,0,0,0,0,0,0,0,0,0,0,0,0,0,0,0,0,0,0,0
783,0.45368594,-0.8680159,-0.0835706,-0.29544443,0.05539375,0.44554684,-3.3038487,0.6792051,-0.17357962,0,0,0,0,0,0,0,0,0,0,0,0,0,0,0,0,0,0,0,0,0
784,0.42649543,-0.85591847,-0.10016653,-0.5148889,-0.013848438,0.48389637,-2.9352913,0.5781997,-0.6630442,0,0,0,0,0,0,0,0,0,0,0,0,0,0,0,0,0,0,0,0,0
785,0.4008057,-0.83377826,-0.11825557,-0.81635875,-0.098004326,0.49241847,-2.9170356,0.76075757,-0.76659346,0,0,0,0,0,0,0,0,0,0,0,0,0,0,0,0,0,0,0,0,0
786,0.38595733,-0.80042666,-0.13486437,-0.94205993,-0.20026971,0.3784352,-2.434604,0.24600422,0.6998551,0,0,0,0,0,0,0,0,0,0,0,0,0,0,0,0,0,0,0,0,0
787,0.37670395,-0.7863935,-0.14444014,-0.47547412,-0.10120012,0.36139095,-2.22152,0.3131915,1.2741642,0,0,0,0,0,0,0,0,0,0,0,0,0,0,0,0,0,0,0,0,0
788,0.35730502,-0.7758776,-0.15879586,0.045440186,-0.04261058,0.26338664,-2.122759,0.54647654,1.0151415,0,0,0,0,0,0,0,0,0,0,0,0,0,0,0,0,0,0,0,0,0
789,0.34695154,-0.7811749,-0.1668675,0.3085605,-0.030892668,0.22077605,-2.8112416,0.7887398,0.705691,0,0,0,0,0,0,0,0,0,0,0,0,0,0,0,0,0,0,0,0,0
790,0.32511678,-0.79416436,-0.18183237,0.40976062,-0.094808534,0.309193,-2.5083752,0.9192238,-0.20530279,0,0,0,0,0,0,0,0,0,0,0,0,0,0,0,0,0,0,0,0,0
791,0.3035231,-0.804135,-0.19375674,0.233992,0.05006743,0.22077605,-2.1077952,0.89932203,-0.47105917,0,0,0,0,0,0,0,0,0,0,0,0,0,0,0,0,0,0,0,0,0
792,0.29989898,-0.80606747,-0.19280252,-0.14204635,0.3387541,0.18988338,-2.8067527,0.40521863,-0.6955156,0,0,0,0,0,0,0,0,0,0,0,0,0,0,0,0,0,0,0,0,0
793,0.28868252,-0.7973879,-0.18707438,-0.27094334,0.4729774,0.4679174,-2.8799253,0.6597522,0.008529344,0,0,0,0,0,0,0,0,0,0,0,0,0,0,0,0,0,0,0,0,0
794,0.26653445,-0.78913444,-0.18909246,-0.07493469,0.33981934,0.4530037,-2.3340473,0.8249521,0.645387,0,0,0,0,0,0,0,0,0,0,0,0,0,0,0,0,0,0,0,0,0
795,0.24478781,-0.7891102,-0.18966065,0.15516242,0.42930156,0.33156356,-1.9776106,0.93014735,0.7023989,0,0,0,0,0,0,0,0,0,0,0,0,0,0,0,0,0,0,0,0,0
796,0.23428904,-0.7961983,-0.18702364,0.20736037,0.20879182,0.04181163,-1.8917186,1.2313678,0.17612346,0,0,0,0,0,0,0,0,0,0,0,0,0,0,0,0,0,0,0,0,0
797,0.23607089,-0.7999311,-0.18591976,0.10935605,-0.10013486,-0.09454222,-2.169895,0.8972271,-0.011671733,0,0,0,0,0,0,0,0,0,0,0,0,0,0,0,0,0,0,0,0,0
798,0.23712818,-0.8031464,-0.19033742,0.041179128,-0.20240024,-0.040213734,-1.9915268,0.86011696,0.28520927,0,0,0,0,0,0,0,0,0,0,0,0,0,0,0,0,0,0,0,0,0
799,0.23757324,-0.80747044,-0.19382973,0.097638145,-0.047936898,-0.12756541,-1.7085621,0.61052144,-0.06584055,0,0,0,0,0,0,0,0,0,0,0,0,0,0,0,0,0,0,0,0,0
800,0.24531521,-0.8102716,-0.18143922,-0.028063059,0.27057716,-0.15419702,-2.274791,0.7731775,-0.47375265,0,0,0,0,0,0,0,0,0,0,0,0,0,0,0,0,0,0,0,0,0
801,0.2489086,-0.8105731,-0.17384315,-0.022736738,0.25992453,-0.060453758,-2.3693619,0.84021515,0.14754269,0,0,0,0,0,0,0,0,0,0,0,0,0,0,0,0,0,0,0,0,0
802,0.25179666,-0.81365395,-0.16606978,0.068876006,0.08628642,-0.10199907,-2.0681415,0.7839514,-0.3760393,0,0,0,0,0,0,0,0,0,0,0,0,0,0,0,0,0,0,0,0,0
803,0.25766993,-0.81535625,-0.16026378,-0.0568252,0.05965481,-0.12436962,-2.0896893,0.85458034,-0.13542204,0,0,0,0,0,0,0,0,0,0,0,0,0,0,0,0,0,0,0,0,0
804,0.2662235,-0.8138048,-0.15294287,-0.03125885,0.10013486,-0.11691277,-1.9627964,0.6971616,0.4918588,0,0,0,0,0,0,0,0,0,0,0,0,0,0,0,0,0,0,0,0,0
805,0.27234414,-0.816633,-0.14418708,0.068876006,0.19813919,-0.048735846,-2.3315036,0.6013935,0.035763387,0,0,0,0,0,0,0,0,0,0,0,0,0,0,0,0,0,0,0,0,0
806,0.2751926,-0.8181912,-0.14081246,0.043309655,0.098004326,-0.02530003,-2.0874445,0.6815993,-0.007930793,0,0,0,0,0,0,0,0,0,0,0,0,0,0,0,0,0,0,0,0,0
807,0.27851325,-0.82101375,-0.13728356,0.081659175,0.07137272,-0.043409526,-2.1221604,0.66723406,-0.028281508,0,0,0,0,0,0,0,0,0,0,0,0,0,0,0,0,0,0,0,0,0
808,0.2826993,-0.82495713,-0.13135943,0.08911603,0.16298546,-0.0743022,-2.0269911,0.60588264,-0.1726818,0,0,0,0,0,0,0,0,0,0,0,0,0,0,0,0,0,0,0,0,0
809,0.28828096,-0.8287556,-0.122321464,0.04650545,0.18002969,-0.06684534,-2.21733,0.6130653,-0.37858313,0,0,0,0,0,0,0,0,0,0,0,0,0,0,0,0,0,0,0,0,0
810,0.29248276,-0.8299324,-0.11716083,6.9907977E-4,0.06072007,-0.04980111,-1.9892824,0.6347627,-0.13781624,0,0,0,0,0,0,0,0,0,0,0,0,0,0,0,0,0,0,0,0,0
811,0.29780382,-0.8309612,-0.11553928,0.0390486,-0.02663161,-0.072171666,-2.0085857,0.48392802,-0.053869538,0,0,0,0,0,0,0,0,0,0,0,0,0,0,0,0,0,0,0,0,0
812,0.30108166,-0.83342427,-0.113752834,0.045440186,0.0777643,-0.038083203,-1.8421886,0.48153383,-0.18674773,0,0,0,0,0,0,0,0,0,0,0,0,0,0,0,0,0,0,0,0,0
813,0.30482647,-0.83477813,-0.10801931,-0.0014314491,0.12996227,-0.029561087,-1.8197429,0.5177461,-0.16145898,0,0,0,0,0,0,0,0,0,0,0,0,0,0,0,0,0,0,0,0,0
814,0.3078766,-0.8357343,-0.10695796,0.025200162,-0.058589544,-0.0039947415,-1.8963574,0.4985925,-0.06808511,0,0,0,0,0,0,0,0,0,0,0,0,0,0,0,0,0,0,0,0,0
815,0.30820704,-0.837524,-0.10867722,0.026265426,-0.0053263223,0.0066579026,-1.7586908,0.53211135,-0.1997662,0,0,0,0,0,0,0,0,0,0,0,0,0,0,0,0,0,0,0,0,0
816,0.31078175,-0.8382058,-0.10750601,0.009221195,0.047936898,-0.009321064,-1.7711107,0.4765958,-0.109834,0,0,0,0,0,0,0,0,0,0,0,0,0,0,0,0,0,0,0,0,0
817,0.3117886,-0.8392761,-0.10603098,0.05076651,0.03195793,0.036485307,-1.7483658,0.46342766,-0.0032920274,0,0,0,0,0,0,0,0,0,0,0,0,0,0,0,0,0,0,0,0,0
818,0.31006485,-0.8428532,-0.108076416,0.081659175,-0.041545313,0.023702133,-1.6074072,0.4631284,-0.33533788,0,0,0,0,0,0,0,0,0,0,0,0,0,0,0,0,0,0,0,0,0
