nr,fusedX,fusedY,fusedZ,gyroX,gyroY,gyroZ,accX,accY,accZ,q,w,e,r,t,z,u,i,o,p,a,s,d,f,g,h,j,k,l,y
0,0.29814214,-1.1323619,-0.87813944,-0.80141574,0.7491573,-0.3151124,3.1789012,8.834904,2.285864,0,0,0,0,0,0,0,0,0,0,0,0,0,0,0,0,0,0,0,0,0
1,0.3544023,-1.124621,-0.81395566,-0.77691466,0.49349385,-0.31724295,2.6449943,8.674492,3.152565,0,0,0,0,0,0,0,0,0,0,0,0,0,0,0,0,0,0,0,0,0
2,0.40781033,-1.1153163,-0.75611866,-0.63522595,0.24742977,-0.2341627,2.7742813,8.455422,2.8760347,0,0,0,0,0,0,0,0,0,0,0,0,0,0,0,0,0,0,0,0,0
3,0.45100123,-1.104396,-0.7093873,-0.73216504,0.21121077,-0.25120693,2.9059622,8.350078,2.441487,0,0,0,0,0,0,0,0,0,0,0,0,0,0,0,0,0,0,0,0,0
4,0.48749676,-1.0924966,-0.6648151,-1.0932896,0.5915102,-0.34281966,2.8089972,8.107066,2.190096,0,0,0,0,0,0,0,0,0,0,0,0,0,0,0,0,0,0,0,0,0
5,0.5655138,-1.0633141,-0.57123077,-1.4831765,0.7885841,-0.46852088,2.843713,8.238748,3.5248635,0,0,0,0,0,0,0,0,0,0,0,0,0,0,0,0,0,0,0,0,0
6,0.6280954,-1.0386738,-0.49988815,-1.4874375,0.63412076,-0.54415464,2.0871453,7.916727,3.6804867,0,0,0,0,0,0,0,0,0,0,0,0,0,0,0,0,0,0,0,0,0
7,0.70437026,-1.0016875,-0.4203986,-1.5822461,0.284714,-0.589961,1.7495629,7.290643,3.9713821,0,0,0,0,0,0,0,0,0,0,0,0,0,0,0,0,0,0,0,0,0
8,0.75873476,-0.9681734,-0.36596742,-1.8954338,0.6596871,-0.66133374,2.0667946,6.8764467,3.9737763,0,0,0,0,0,0,0,0,0,0,0,0,0,0,0,0,0,0,0,0,0
9,0.8338864,-0.9110385,-0.2722969,-2.105291,1.2072331,-0.7028791,1.2862848,6.778284,5.085883,0,0,0,0,0,0,0,0,0,0,0,0,0,0,0,0,0,0,0,0,0
10,0.9064229,-0.8433056,-0.18211944,-2.1958385,1.0751402,-0.7007485,0.02813187,5.674557,6.0878563,0,0,0,0,0,0,0,0,0,0,0,0,0,0,0,0,0,0,0,0,0
11,0.9536658,-0.7900973,-0.13358645,-2.025396,0.63412076,-0.62511474,0.25438392,5.2507834,7.102998,0,0,0,0,0,0,0,0,0,0,0,0,0,0,0,0,0,0,0,0,0
12,0.99425006,-0.73386544,-0.09258077,-1.4831765,0.33797723,-0.60487473,0.22685061,6.054038,7.2861543,0,0,0,0,0,0,0,0,0,0,0,0,0,0,0,0,0,0,0,0,0
13,1.0252477,-0.6958779,-0.074236505,-1.5396354,-0.30863827,-0.5867652,-0.83737206,4.622306,7.0742674,0,0,0,0,0,0,0,0,0,0,0,0,0,0,0,0,0,0,0,0,0
14,1.0665487,-0.64983755,-0.071587086,-1.0155253,-0.8295526,-0.63363683,-0.8900445,4.694132,7.911041,0,0,0,0,0,0,0,0,0,0,0,0,0,0,0,0,0,0,0,0,0
15,1.077384,-0.6236659,-0.10548865,-1.0208517,-1.4612544,0.120570354,0.8074445,5.0029836,6.903082,0,0,0,0,0,0,0,0,0,0,0,0,0,0,0,0,0,0,0,0,0
16,1.0746058,-0.5782193,-0.12876222,-2.287451,-0.014625282,0.55200243,2.0440497,4.885668,9.238626,0,0,0,0,0,0,0,0,0,0,0,0,0,0,0,0,0,0,0,0,0
17,1.0701898,-0.50566304,-0.11200341,-1.5225912,0.85036945,0.6936826,-0.037708677,4.5612535,12.985552,0,0,0,0,0,0,0,0,0,0,0,0,0,0,0,0,0,0,0,0,0
18,1.0589607,-0.48324764,-0.104641534,-0.18994543,0.72147244,0.89288706,0.04129998,3.6502597,9.804854,0,0,0,0,0,0,0,0,0,0,0,0,0,0,0,0,0,0,0,0,0
19,1.0210724,-0.4892614,-0.08201819,0.46200493,1.247725,1.048405,0.76434886,5.2376156,11.219828,0,0,0,0,0,0,0,0,0,0,0,0,0,0,0,0,0,0,0,0,0
20,0.9992178,-0.497164,-0.07895497,0.48970178,0.11215317,0.92803013,0.3393781,4.2296567,9.930551,0,0,0,0,0,0,0,0,0,0,0,0,0,0,0,0,0,0,0,0,0
21,0.96682805,-0.51283205,-0.11103817,0.69955885,-0.7720163,0.9472049,0.52612585,4.2152915,8.848371,0,0,0,0,0,0,0,0,0,0,0,0,0,0,0,0,0,0,0,0,0
22,0.9229362,-0.53511876,-0.15291241,0.88917595,-0.49824336,1.0207082,1.1139023,5.210082,8.853159,0,0,0,0,0,0,0,0,0,0,0,0,0,0,0,0,0,0,0,0,0
23,0.8724482,-0.55363446,-0.18341653,0.7059505,-0.20636089,1.3413527,1.6992847,5.3956327,6.3787518,0,0,0,0,0,0,0,0,0,0,0,0,0,0,0,0,0,0,0,0,0
24,0.8055389,-0.5516223,-0.21161287,-0.7449397,0.28366074,1.2231084,1.702876,5.4387283,3.9294837,0,0,0,0,0,0,0,0,0,0,0,0,0,0,0,0,0,0,0,0,0
25,0.7960658,-0.5000474,-0.21940249,-2.301291,0.30177024,0.73947835,4.540005,3.9459436,11.715427,0,0,0,0,0,0,0,0,0,0,0,0,0,0,0,0,0,0,0,0,0
26,0.7989478,-0.44510844,-0.2205239,-0.58621526,0.5755432,-0.013663614,4.2251673,3.0924108,10.344747,0,0,0,0,0,0,0,0,0,0,0,0,0,0,0,0,0,0,0,0,0
27,0.80842924,-0.4437682,-0.18740757,-0.27515808,1.5747613,-0.46533573,1.1976994,2.7656024,6.4086795,0,0,0,0,0,0,0,0,0,0,0,0,0,0,0,0,0,0,0,0,0
28,0.84039193,-0.43237185,-0.1183417,-0.27941912,1.3510557,-0.5004895,-0.7930793,4.9431286,11.586141,0,0,0,0,0,0,0,0,0,0,0,0,0,0,0,0,0,0,0,0,0
29,0.8507015,-0.4510448,-0.07415333,0.76454,1.1007186,-0.16919222,-0.5009867,4.045303,7.827244,0,0,0,0,0,0,0,0,0,0,0,0,0,0,0,0,0,0,0,0,0
30,0.85280645,-0.461378,-0.0472824,0.105141334,1.0112363,-0.19582383,0.16460137,3.892074,7.567473,0,0,0,0,0,0,0,0,0,0,0,0,0,0,0,0,0,0,0,0,0
31,0.86295485,-0.45388287,-0.029276714,-0.37635818,-0.16055453,-0.017924672,-0.97982705,4.259584,8.034343,0,0,0,0,0,0,0,0,0,0,0,0,0,0,0,0,0,0,0,0,0
32,0.86631,-0.43901393,-0.03726566,-0.6820891,-0.48013386,-0.0040762345,0.010175358,3.6598365,8.8567505,0,0,0,0,0,0,0,0,0,0,0,0,0,0,0,0,0,0,0,0,0
33,0.87171835,-0.420655,-0.04837865,-0.16863163,-0.28305992,-0.0072720274,0.8146271,3.676596,11.690289,0,0,0,0,0,0,0,0,0,0,0,0,0,0,0,0,0,0,0,0,0
34,0.87112135,-0.4426498,-0.062358573,1.1810584,-0.3831948,0.24306512,-0.85772276,3.4311903,8.974067,0,0,0,0,0,0,0,0,0,0,0,0,0,0,0,0,0,0,0,0,0
35,0.8608763,-0.46644947,-0.06943562,0.7208642,-0.017809091,0.45718327,-0.45070848,3.4503438,7.247847,0,0,0,0,0,0,0,0,0,0,0,0,0,0,0,0,0,0,0,0,0
36,0.8415553,-0.47496083,-0.06775005,0.2553564,0.50312334,0.604174,-0.0077811554,3.80708,9.011177,0,0,0,0,0,0,0,0,0,0,0,0,0,0,0,0,0,0,0,0,0
37,0.81576777,-0.4862272,-0.060740378,0.53019464,0.62882453,0.49019074,1.3628993,5.1167083,8.607754,0,0,0,0,0,0,0,0,0,0,0,0,0,0,0,0,0,0,0,0,0
38,0.8030286,-0.50418687,-0.054217085,0.42366818,-0.035900477,-0.014744591,0.26755205,5.7152586,8.492832,0,0,0,0,0,0,0,0,0,0,0,0,0,0,0,0,0,0,0,0,0
39,0.79821706,-0.5086533,-0.05981139,0.10195832,-0.018856246,0.43799278,0.05805939,3.7412395,7.81647,0,0,0,0,0,0,0,0,0,0,0,0,0,0,0,0,0,0,0,0,0
40,0.7831403,-0.5053195,-0.064766146,-0.09085454,0.09938811,0.37940323,0.4866215,4.3553524,8.940548,0,0,0,0,0,0,0,0,0,0,0,0,0,0,0,0,0,0,0,0,0
41,0.75906724,-0.5095293,-0.076728314,0.4289945,-0.13283955,0.41242644,1.9111716,4.1590276,9.094974,0,0,0,0,0,0,0,0,0,0,0,0,0,0,0,0,0,0,0,0,0
42,0.7488565,-0.5226536,-0.082545616,0.38851446,-0.018856246,0.20683041,0.31783026,4.0883985,6.431424,0,0,0,0,0,0,0,0,0,0,0,0,0,0,0,0,0,0,0,0,0
43,0.7561506,-0.514509,-0.07667981,-0.77368903,0.25598198,-0.503701,0.43275195,2.9331963,6.43741,0,0,0,0,0,0,0,0,0,0,0,0,0,0,0,0,0,0,0,0,0
44,0.7714936,-0.47553012,-0.06977237,-1.913522,-0.27238917,-1.2334071,1.9997569,3.2121208,6.867169,0,0,0,0,0,0,0,0,0,0,0,0,0,0,0,0,0,0,0,0,0
45,0.8179536,-0.43390352,-0.034994934,-0.8184301,0.6778267,-1.0469859,0.31304187,5.412392,9.643246,0,0,0,0,0,0,0,0,0,0,0,0,0,0,0,0,0,0,0,0,0
46,0.8435756,-0.4287783,4.999543E-4,0.40342817,1.1838273,-0.38971767,-0.705691,3.783138,10.359112,0,0,0,0,0,0,0,0,0,0,0,0,0,0,0,0,0,0,0,0,0
47,0.8580217,-0.4561518,0.038533892,0.84764344,0.76624364,-0.26827753,-1.0121487,4.081216,7.2059484,0,0,0,0,0,0,0,0,0,0,0,0,0,0,0,0,0,0,0,0,0
48,0.871991,-0.47823298,0.07401045,0.704898,0.98994917,-0.2927786,-1.1713632,4.5851955,10.011953,0,0,0,0,0,0,0,0,0,0,0,0,0,0,0,0,0,0,0,0,0
49,0.8789918,-0.49489826,0.09902351,0.7293991,0.66717404,-0.03604988,-1.6059108,4.6175175,9.257779,0,0,0,0,0,0,0,0,0,0,0,0,0,0,0,0,0,0,0,0,0
50,0.8825869,-0.512718,0.115537405,0.41195026,0.35824737,0.11521767,-1.7651252,3.9351697,7.575853,0,0,0,0,0,0,0,0,0,0,0,0,0,0,0,0,0,0,0,0,0
51,0.8856033,-0.5148374,0.1278439,-0.14411776,0.35292104,-0.024331972,-2.0859482,5.7032876,9.657611,0,0,0,0,0,0,0,0,0,0,0,0,0,0,0,0,0,0,0,0,0
52,0.8750132,-0.5145755,0.12540622,0.34696275,0.08872641,0.4369355,-0.39444473,3.7089176,9.036316,0,0,0,0,0,0,0,0,0,0,0,0,0,0,0,0,0,0,0,0,0
53,0.8684901,-0.53033376,0.1325627,0.5759946,0.7268198,0.18446785,-1.5065514,4.6558247,6.821679,0,0,0,0,0,0,0,0,0,0,0,0,0,0,0,0,0,0,0,0,0
54,0.86432236,-0.5507511,0.17144556,0.75708956,1.7089936,0.507243,-2.0500352,4.319439,9.025542,0,0,0,0,0,0,0,0,0,0,0,0,0,0,0,0,0,0,0,0,0
55,0.8559005,-0.5863631,0.22226515,1.3078313,1.6429472,0.5818115,-1.2024878,4.5863924,12.134413,0,0,0,0,0,0,0,0,0,0,0,0,0,0,0,0,0,0,0,0,0
56,0.8582195,-0.60181737,0.21775603,0.38318175,-0.78372514,0.1258783,-0.46746787,3.165434,9.345168,0,0,0,0,0,0,0,0,0,0,0,0,0,0,0,0,0,0,0,0,0
57,0.86348,-0.6056913,0.17996916,0.0018170748,-1.3866649,-0.24270318,-1.0301052,4.745607,7.079056,0,0,0,0,0,0,0,0,0,0,0,0,0,0,0,0,0,0,0,0,0
58,0.8609339,-0.6017607,0.14482446,-0.20377895,-1.3802732,-0.25548637,-0.24001873,5.005378,7.1233487,0,0,0,0,0,0,0,0,0,0,0,0,0,0,0,0,0,0,0,0,0
59,0.8628639,-0.59906596,0.105862916,0.18823835,-1.1139572,-0.16600415,-0.15382746,5.0472765,7.3831196,0,0,0,0,0,0,0,0,0,0,0,0,0,0,0,0,0,0,0,0,0
60,0.861496,-0.6144975,0.083274014,0.66441154,-0.5706723,-0.22352843,0.3226187,4.6689925,7.3711486,0,0,0,0,0,0,0,0,0,0,0,0,0,0,0,0,0,0,0,0,0
61,0.87016433,-0.6317542,0.07767999,0.5685378,-0.61967444,-0.4813224,-0.4770447,5.090372,6.2686186,0,0,0,0,0,0,0,0,0,0,0,0,0,0,0,0,0,0,0,0,0
62,0.8931138,-0.6394027,0.07009826,-0.002443983,-0.791182,-0.5921099,-1.287482,5.706879,6.667253,0,0,0,0,0,0,0,0,0,0,0,0,0,0,0,0,0,0,0,0,0
63,0.9103566,-0.634222,0.05920417,-0.19419158,-1.0606939,-0.4046234,-1.809418,6.310218,8.302493,0,0,0,0,0,0,0,0,0,0,0,0,0,0,0,0,0,0,0,0,0
64,0.9247122,-0.62992454,0.027785545,0.0369708,-1.30677,-0.39929706,-0.96905315,5.7260327,8.20433,0,0,0,0,0,0,0,0,0,0,0,0,0,0,0,0,0,0,0,0,0
65,0.94034296,-0.6388256,0.0118542835,0.46094605,-0.9978433,-0.49197507,-1.5951369,6.7471595,7.699154,0,0,0,0,0,0,0,0,0,0,0,0,0,0,0,0,0,0,0,0,0
66,0.95779365,-0.65689325,-0.0064340355,0.43644497,-1.0063654,-0.30448854,-1.6130934,6.670545,6.9366007,0,0,0,0,0,0,0,0,0,0,0,0,0,0,0,0,0,0,0,0,0
67,0.9632441,-0.67548907,-0.024967141,0.54084086,-0.589847,-0.0626735,-1.0851719,6.3389482,6.0782795,0,0,0,0,0,0,0,0,0,0,0,0,0,0,0,0,0,0,0,0,0
68,0.9533315,-0.69089425,-0.03440886,0.5152745,-0.16374126,0.16103204,0.093972415,6.1019225,6.1010246,0,0,0,0,0,0,0,0,0,0,0,0,0,0,0,0,0,0,0,0,0
69,0.9327336,-0.7051347,-0.046730835,0.34166226,-0.0891368,0.17378351,1.2898762,5.4985833,6.073491,0,0,0,0,0,0,0,0,0,0,0,0,0,0,0,0,0,0,0,0,0
70,0.9183663,-0.70849276,-0.05411376,-0.018397117,-0.062505186,-0.044595696,1.4909891,5.3908443,6.287772,0,0,0,0,0,0,0,0,0,0,0,0,0,0,0,0,0,0,0,0,0
71,0.9195093,-0.7040697,-0.053475127,-0.13664147,-0.06463572,-0.1671011,1.0109516,5.6410384,7.3232646,0,0,0,0,0,0,0,0,0,0,0,0,0,0,0,0,0,0,0,0,0
72,0.92363536,-0.700135,-0.05263621,-0.10255301,-0.062505186,-0.2182338,0.8265981,5.620688,7.378331,0,0,0,0,0,0,0,0,0,0,0,0,0,0,0,0,0,0,0,0,0
73,0.9358847,-0.6971034,-0.044489868,-0.026919233,0.087697096,-0.3290213,0.5081693,5.614702,7.671621,0,0,0,0,0,0,0,0,0,0,0,0,0,0,0,0,0,0,0,0,0
74,0.9547421,-0.69633806,-0.0305611,-0.024788704,0.03336861,-0.41424245,-0.08678981,6.0097456,7.683592,0,0,0,0,0,0,0,0,0,0,0,0,0,0,0,0,0,0,0,0,0
75,0.96823204,-0.6956293,-0.022884812,0.04871454,-0.056113604,-0.2896065,-0.13587095,6.060024,8.003218,0,0,0,0,0,0,0,0,0,0,0,0,0,0,0,0,0,0,0,0,0
76,0.9816604,-0.6993746,-0.01742396,0.15630625,-0.11470315,-0.2938676,-0.20410569,6.0013657,7.471705,0,0,0,0,0,0,0,0,0,0,0,0,0,0,0,0,0,0,0,0,0
77,0.99197614,-0.70327675,-0.0124737425,0.116891466,-0.0891368,-0.26723596,-0.42078096,6.2336035,7.270592,0,0,0,0,0,0,0,0,0,0,0,0,0,0,0,0,0,0,0,0,0
78,1.0006827,-0.7067287,-0.009141881,0.073215626,-0.12642105,-0.16816637,-0.29628247,6.2671223,7.1113777,0,0,0,0,0,0,0,0,0,0,0,0,0,0,0,0,0,0,0,0,0
79,1.0050142,-0.70825243,-0.009232364,0.025278725,-0.10085471,-0.087206274,-0.16340427,6.264728,7.187992,0,0,0,0,0,0,0,0,0,0,0,0,0,0,0,0,0,0,0,0,0
80,1.0037578,-0.70962536,-0.010536671,0.0380619,-0.045460958,-0.029681996,0.15023616,5.9774237,6.821679,0,0,0,0,0,0,0,0,0,0,0,0,0,0,0,0,0,0,0,0,0
81,1.0027081,-0.7098037,-0.009282383,-0.01946238,0.061065484,-0.056313608,0.32022446,5.9032035,6.8599863,0,0,0,0,0,0,0,0,0,0,0,0,0,0,0,0,0,0,0,0,0
82,1.0053827,-0.708048,-0.004583361,-0.049289785,0.12391608,-0.071227305,0.04369418,5.952285,7.3807254,0,0,0,0,0,0,0,0,0,0,0,0,0,0,0,0,0,0,0,0,0
83,1.0091546,-0.70599234,5.117745E-5,-2.876214E-4,0.05786969,-0.031812523,-0.006584055,6.054038,7.8811135,0,0,0,0,0,0,0,0,0,0,0,0,0,0,0,0,0,0,0,0,0
84,1.0113505,-0.7061862,7.2967727E-4,0.032735575,-0.025220934,-0.06590099,-0.054468088,5.9714384,7.569867,0,0,0,0,0,0,0,0,0,0,0,0,0,0,0,0,0,0,0,0,0
85,1.0147842,-0.7066449,0.0016754216,0.01675661,-0.063570455,-0.06377046,-0.17776948,6.1510034,7.465719,0,0,0,0,0,0,0,0,0,0,0,0,0,0,0,0,0,0,0,0,0
86,1.0151412,-0.7061443,-5.6269363E-4,-0.0066749468,-0.07421724,0.016119048,-0.02813187,6.051644,7.417835,0,0,0,0,0,0,0,0,0,0,0,0,0,0,0,0,0,0,0,0,0
87,1.0143788,-0.70670193,-0.0022702243,0.081742,-0.03586772,0.0075969333,0.035314474,5.9259486,7.3723454,0,0,0,0,0,0,0,0,0,0,0,0,0,0,0,0,0,0,0,0,0
88,1.0127603,-0.70917386,-0.002956927,0.10624308,0.014199709,-0.014773619,0.14185645,5.9474964,7.057508,0,0,0,0,0,0,0,0,0,0,0,0,0,0,0,0,0,0,0,0,0
89,1.0127063,-0.7115092,-0.0015280755,0.03806616,0.04828817,-0.019034678,0.02813187,6.0875573,7.256227,0,0,0,0,0,0,0,0,0,0,0,0,0,0,0,0,0,0,0,0,0
90,1.0117416,-0.7123848,-8.408672E-4,0.033805102,-0.010301373,0.0054664044,0.073621705,6.0253077,7.2406645,0,0,0,0,0,0,0,0,0,0,0,0,0,0,0,0,0,0,0,0,0
91,1.010919,-0.7120246,-0.0019851676,-0.009870741,-0.0454551,-0.011577826,0.08559271,5.988198,7.2370734,0,0,0,0,0,0,0,0,0,0,0,0,0,0,0,0,0,0,0,0,0
92,1.0117667,-0.7111138,-0.0027754747,0.0061082263,-0.04332457,-0.014773619,-0.050876785,6.071995,7.4812818,0,0,0,0,0,0,0,0,0,0,0,0,0,0,0,0,0,0,0,0,0
93,1.0117815,-0.71177715,-0.003939626,0.046588276,-0.032671925,-0.0041209753,0.02813187,6.0552354,7.330447,0,0,0,0,0,0,0,0,0,0,0,0,0,0,0,0,0,0,0,0,0
94,1.0113127,-0.71292347,-0.0041990643,0.07961147,0.011003915,-0.0105125625,0.13587095,5.9630585,7.2861543,0,0,0,0,0,0,0,0,0,0,0,0,0,0,0,0,0,0,0,0,0
95,1.0111334,-0.7144489,-0.003921311,0.0636325,-0.027345603,-0.017969413,0.0700304,6.039673,7.2322845,0,0,0,0,0,0,0,0,0,0,0,0,0,0,0,0,0,0,0,0,0
96,1.0109879,-0.71489006,-0.0063493256,-0.0024138892,-0.10510991,-0.01264309,0.11791443,6.04087,7.189189,0,0,0,0,0,0,0,0,0,0,0,0,0,0,0,0,0,0,0,0,0
97,1.0103412,-0.71451664,-0.008630913,0.021021929,-0.04758563,-0.02223047,0.219668,5.943905,7.15567,0,0,0,0,0,0,0,0,0,0,0,0,0,0,0,0,0,0,0,0,0
98,1.0118107,-0.7164876,-0.0062095146,0.05724092,0.045092378,-0.054188404,0.011372458,6.1414266,7.1951747,0,0,0,0,0,0,0,0,0,0,0,0,0,0,0,0,0,0,0,0,0
99,1.0121945,-0.71702373,-0.004656077,0.002912433,-0.0028445222,-0.021165207,-0.12749124,6.190508,7.2310877,0,0,0,0,0,0,0,0,0,0,0,0,0,0,0,0,0,0,0,0,0
100,1.0124553,-0.7164167,-0.0046166587,-0.0034791536,-0.019888753,0.011857991,-0.0676362,6.1114993,7.349601,0,0,0,0,0,0,0,0,0,0,0,0,0,0,0,0,0,0,0,0,0
101,1.0108289,-0.71645993,-0.0059629832,0.0039776973,-0.032671925,0.0022706112,0.037708677,6.085163,7.1305313,0,0,0,0,0,0,0,0,0,0,0,0,0,0,0,0,0,0,0,0,0
102,1.0097252,-0.7156388,-0.0070303404,-0.026914971,-0.01882349,0.018249577,0.048482586,6.1282587,7.191583,0,0,0,0,0,0,0,0,0,0,0,0,0,0,0,0,0,0,0,0,0
103,1.0075166,-0.7147615,-0.008449264,-0.017327592,-0.012431902,0.037424337,0.17058687,6.0576296,7.1832037,0,0,0,0,0,0,0,0,0,0,0,0,0,0,0,0,0,0,0,0,0
104,1.0054429,-0.71353245,-0.010441781,-0.015197062,-0.022019282,0.0235759,0.25558102,5.92116,7.3029137,0,0,0,0,0,0,0,0,0,0,0,0,0,0,0,0,0,0,0,0,0
105,1.0057955,-0.71229017,-0.011047421,-0.018392855,-0.015627695,-0.021165207,0.14185645,6.016928,7.44896,0,0,0,0,0,0,0,0,0,0,0,0,0,0,0,0,0,0,0,0,0
106,1.006444,-0.7119354,-0.011098409,0.010369284,-0.014562431,-0.014773619,0.09636662,6.076783,7.319673,0,0,0,0,0,0,0,0,0,0,0,0,0,0,0,0,0,0,0,0,0
107,1.0054798,-0.71205485,-0.011594832,0.022087192,0.009938651,0.009727462,0.19572599,5.9989715,7.167641,0,0,0,0,0,0,0,0,0,0,0,0,0,0,0,0,0,0,0,0,0
108,1.0049522,-0.71210814,-0.011294046,-0.0024138892,0.009938651,-0.0041209753,0.12509704,6.028899,7.1963716,0,0,0,0,0,0,0,0,0,0,0,0,0,0,0,0,0,0,0,0,0
109,1.0054927,-0.71117646,-0.011289102,-0.0120012695,-0.004975051,-0.0041209753,0.08319851,6.0336876,7.2909427,0,0,0,0,0,0,0,0,0,0,0,0,0,0,0,0,0,0,0,0,0
110,1.0059083,-0.7111434,-0.010568351,0.029544044,0.044027112,-0.009447298,0.08798691,6.048053,7.293337,0,0,0,0,0,0,0,0,0,0,0,0,0,0,0,0,0,0,0,0,0
111,1.0063684,-0.7113474,-0.0094952,-0.004544418,-0.0028445222,0.006531669,0.061650693,6.0312934,7.2969284,0,0,0,0,0,0,0,0,0,0,0,0,0,0,0,0,0,0,0,0,0
112,1.00558,-0.7101963,-0.011053425,-0.0141317975,-0.030541398,0.016119048,0.2100912,5.970241,7.32925,0,0,0,0,0,0,0,0,0,0,0,0,0,0,0,0,0,0,0,0,0
113,1.005206,-0.7099856,-0.011724055,-0.0141317975,-0.012431902,-0.015838884,0.11911154,6.027702,7.241862,0,0,0,0,0,0,0,0,0,0,0,0,0,0,0,0,0,0,0,0,0
114,1.0058788,-0.7083645,-0.011994152,-0.034371823,-0.022019282,0.0012053467,0.08439561,6.0193224,7.389105,0,0,0,0,0,0,0,0,0,0,0,0,0,0,0,0,0,0,0,0,0
115,1.0056334,-0.7076528,-0.012802578,0.0018471685,-0.010301373,0.0033358755,0.16699557,6.0073514,7.363966,0,0,0,0,0,0,0,0,0,0,0,0,0,0,0,0,0,0,0,0,0
116,1.006343,-0.7078754,-0.012100726,0.03806616,0.01952603,-0.008382034,0.08798691,5.9391165,7.373543,0,0,0,0,0,0,0,0,0,0,0,0,0,0,0,0,0,0,0,0,0
117,1.0064092,-0.70856375,-0.011718002,0.030609308,-0.008170844,-0.014773619,0.09995792,6.073192,7.235876,0,0,0,0,0,0,0,0,0,0,0,0,0,0,0,0,0,0,0,0,0
118,1.0065923,-0.7081877,-0.012242516,-0.015197062,-0.020954018,0.016119048,0.0796072,6.024111,7.3472066,0,0,0,0,0,0,0,0,0,0,0,0,0,0,0,0,0,0,0,0,0
119,1.005857,-0.70795846,-0.013318356,7.669904E-4,-0.02310532,-0.0062331283,0.11791443,5.9953804,7.1245456,0,0,0,0,0,0,0,0,0,0,0,0,0,0,0,0,0,0,0,0,0
120,1.0057607,-0.7073005,-0.01360031,-0.007755125,-0.004995824,0.011876367,0.108337626,5.992986,7.2873516,0,0,0,0,0,0,0,0,0,0,0,0,0,0,0,0,0,0,0,0,0
121,1.0050647,-0.7068728,-0.014198627,-0.007755125,0.009917879,0.0054847803,0.18734628,5.992986,7.2981253,0,0,0,0,0,0,0,0,0,0,0,0,0,0,0,0,0,0,0,0,0
122,1.0057452,-0.7062366,-0.013791742,0.024202807,0.0152442,-9.068063E-4,0.09756372,5.9606643,7.4705076,0,0,0,0,0,0,0,0,0,0,0,0,0,0,0,0,0,0,0,0,0
123,1.0058277,-0.7070066,-0.013463805,0.04124704,0.0067220847,-0.0030373351,0.15143326,5.957073,7.2861543,0,0,0,0,0,0,0,0,0,0,0,0,0,0,0,0,0,0,0,0,0
124,1.0055408,-0.70774347,-0.012953568,0.03165966,0.02483158,-0.015820509,0.16220717,6.0348845,7.191583,0,0,0,0,0,0,0,0,0,0,0,0,0,0,0,0,0,0,0,0,0
125,1.0063258,-0.70760334,-0.011562894,0.01035437,0.029092638,-0.0030373351,0.10354923,5.95827,7.3603745,0,0,0,0,0,0,0,0,0,0,0,0,0,0,0,0,0,0,0,0,0
126,1.0063688,-0.7076721,-0.0109252175,0.0060933125,0.010983143,-0.016885772,0.10354923,5.979818,7.270592,0,0,0,0,0,0,0,0,0,0,0,0,0,0,0,0,0,0,0,0,0
127,1.0068324,-0.70720464,-0.010717634,-0.0013635384,-0.014583204,-0.01368998,0.073621705,6.0133367,7.3352356,0,0,0,0,0,0,0,0,0,0,0,0,0,0,0,0,0,0,0,0,0
128,1.0070733,-0.7067798,-0.010924685,-0.009885654,-0.011387411,1.5845809E-4,0.008978256,6.052841,7.28376,0,0,0,0,0,0,0,0,0,0,0,0,0,0,0,0,0,0,0,0,0
129,1.0070894,-0.7058903,-0.011425648,-0.005624596,-0.004995824,0.0065500448,0.10115502,5.9606643,7.417835,0,0,0,0,0,0,0,0,0,0,0,0,0,0,0,0,0,0,0,0,0
130,1.0070732,-0.70589596,-0.011160985,0.038051244,0.021635788,-0.0030373351,0.061650693,6.014534,7.353192,0,0,0,0,0,0,0,0,0,0,0,0,0,0,0,0,0,0,0,0,0
131,1.0066459,-0.7068705,-0.010406871,0.01035437,0.019505259,0.010811103,0.0688333,6.027702,7.341221,0,0,0,0,0,0,0,0,0,0,0,0,0,0,0,0,0,0,0,0,0
132,1.0067468,-0.70637274,-0.010712421,0.015680693,-0.0018000306,0.017202688,0.10235212,5.9055977,7.44896,0,0,0,0,0,0,0,0,0,0,0,0,0,0,0,0,0,0,0,0,0
133,1.0059165,-0.7068112,-0.011836117,0.03165966,-0.02097479,-0.008363658,0.23762453,5.943905,7.316082,0,0,0,0,0,0,0,0,0,0,0,0,0,0,0,0,0,0,0,0,0
134,1.0060682,-0.70727336,-0.012451291,0.03485545,-0.029496906,-0.033930004,0.23163901,5.9510875,7.2310877,0,0,0,0,0,0,0,0,0,0,0,0,0,0,0,0,0,0,0,0,0
135,1.0076157,-0.70824474,-0.011612202,0.033790186,0.0024610271,-0.03819106,0.089184016,6.024111,7.235876,0,0,0,0,0,0,0,0,0,0,0,0,0,0,0,0,0,0,0,0,0
136,1.008403,-0.70875853,-0.010803434,0.017824005,-0.0049779806,-0.038206775,0.046088383,6.0696006,7.1664443,0,0,0,0,0,0,0,0,0,0,0,0,0,0,0,0,0,0,0,0,0
137,1.0097684,-0.7084929,-0.009832408,-0.01946025,-0.006043245,-0.033945717,-0.04369418,6.112696,7.2167225,0,0,0,0,0,0,0,0,0,0,0,0,0,0,0,0,0,0,0,0,0
138,1.0113496,-0.7071802,-0.008785284,-0.014133928,0.023784159,0.009730125,-0.037708677,6.0552354,7.5028296,0,0,0,0,0,0,0,0,0,0,0,0,0,0,0,0,0,0,0,0,0
139,1.0118039,-0.7064472,-0.00923313,0.036998764,-0.023087475,-0.0019877835,0.16101007,5.8672905,7.5483193,0,0,0,0,0,0,0,0,0,0,0,0,0,0,0,0,0,0,0,0,0
140,1.0116756,-0.7073985,-0.010157907,0.05510826,-0.033740122,-0.022227807,0.2100912,5.9977746,7.2670007,0,0,0,0,0,0,0,0,0,0,0,0,0,0,0,0,0,0,0,0,0
141,1.0111849,-0.7092897,-0.010329315,0.066826165,0.008870457,-0.038206775,0.26036942,6.030096,7.079056,0,0,0,0,0,0,0,0,0,0,0,0,0,0,0,0,0,0,0,0,0
142,1.0119351,-0.7109708,-0.008725871,0.040194556,0.023784159,-0.053120475,0.008978256,6.1390324,7.043143,0,0,0,0,0,0,0,0,0,0,0,0,0,0,0,0,0,0,0,0,0
143,1.0140643,-0.7111138,-0.0065488685,-0.0024160198,0.015262043,-0.01583622,-0.092775315,6.1031194,7.340024,0,0,0,0,0,0,0,0,0,0,0,0,0,0,0,0,0,0,0,0,0
144,1.0145191,-0.7107515,-0.0067041707,0.011432418,-0.008173774,1.4274543E-4,0.05327099,5.9630585,7.3687544,0,0,0,0,0,0,0,0,0,0,0,0,0,0,0,0,0,0,0,0,0
145,1.0147681,-0.7111578,-0.006590078,0.049781937,-0.0017821874,-0.013705692,0.107140526,6.030096,7.32925,0,0,0,0,0,0,0,0,0,0,0,0,0,0,0,0,0,0,0,0,0
146,1.014542,-0.712523,-0.006627637,0.042325087,-0.006043245,-0.013705692,0.14664486,6.00376,7.1700354,0,0,0,0,0,0,0,0,0,0,0,0,0,0,0,0,0,0,0,0,0
147,1.0152407,-0.71243775,-0.006451545,0.0071713603,-0.011369567,-0.030749923,0.08200141,5.9870005,7.2789717,0,0,0,0,0,0,0,0,0,0,0,0,0,0,0,0,0,0,0,0,0
148,1.0162922,-0.7127,-0.005724828,0.02421559,-0.008173774,-0.043533098,0.024540568,6.145018,7.189189,0,0,0,0,0,0,0,0,0,0,0,0,0,0,0,0,0,0,0,0,0
149,1.0174453,-0.71300715,-0.0043137004,0.013562947,0.017392572,-0.01583622,-0.14664486,6.1533976,7.3232646,0,0,0,0,0,0,0,0,0,0,0,0,0,0,0,0,0,0,0,0,0
150,1.018217,-0.71315086,-0.0041732714,0.008236624,-0.028413799,0.009730125,-0.10474633,6.0492496,7.3244615,0,0,0,0,0,0,0,0,0,0,0,0,0,0,0,0,0,0,0,0,0
151,1.0171797,-0.7130978,-0.0059967423,0.010367153,-0.047588557,0.00866486,0.04249708,6.158186,7.2514386,0,0,0,0,0,0,0,0,0,0,0,0,0,0,0,0,0,0,0,0,0
152,1.0150253,-0.71338034,-0.0073973495,-0.0045508095,-0.0071143685,0.029975476,0.16220717,6.064812,7.1832037,0,0,0,0,0,0,0,0,0,0,0,0,0,0,0,0,0,0,0,0,0
153,1.0144398,-0.71218836,-0.007917099,-0.010942396,0.0056688045,0.020388097,0.12150574,5.9139776,7.4082584,0,0,0,0,0,0,0,0,0,0,0,0,0,0,0,0,0,0,0,0,0
154,1.0140285,-0.7118026,-0.00809665,0.013558686,-0.003918575,0.0022786006,0.050876785,6.0312934,7.2909427,0,0,0,0,0,0,0,0,0,0,0,0,0,0,0,0,0,0,0,0,0
155,1.0134073,-0.7117902,-0.00836785,0.021015536,0.009929863,0.02145336,0.09636662,5.969044,7.3627687,0,0,0,0,0,0,0,0,0,0,0,0,0,0,0,0,0,0,0,0,0
156,1.0123209,-0.7122224,-0.008934242,0.045516618,-0.015636483,1.4807176E-4,0.18734628,6.014534,7.2382703,0,0,0,0,0,0,0,0,0,0,0,0,0,0,0,0,0,0,0,0,0
157,1.0115379,-0.7138744,-0.009024782,0.03379871,0.0014077469,-0.008374044,0.035314474,6.1677628,7.0156097,0,0,0,0,0,0,0,0,0,0,0,0,0,0,0,0,0,0,0,0,0
158,1.0101508,-0.7142499,-0.009020214,0.016754478,0.01419092,0.026779683,0.11432313,6.073192,7.189189,0,0,0,0,0,0,0,0,0,0,0,0,0,0,0,0,0,0,0,0,0
159,1.0095567,-0.71391994,-0.008920524,-0.008811868,0.015256184,0.0022786006,0.0796072,6.098331,7.2981253,0,0,0,0,0,0,0,0,0,0,0,0,0,0,0,0,0,0,0,0,0
160,1.0101976,-0.71308523,-0.008002815,-0.0024202808,0.024843564,0.012931244,-0.04129998,6.1162877,7.4669166,0,0,0,0,0,0,0,0,0,0,0,0,0,0,0,0,0,0,0,0,0
161,1.0090773,-0.7131461,-0.008519928,0.038059767,0.010995126,0.028910212,0.16699557,5.9415107,7.2670007,0,0,0,0,0,0,0,0,0,0,0,0,0,0,0,0,0,0,0,0,0
162,1.0078884,-0.7138628,-0.008916105,0.02634186,0.00460354,0.0054743937,0.17896658,6.039673,7.2622123,0,0,0,0,0,0,0,0,0,0,0,0,0,0,0,0,0,0,0,0,0
163,1.0075507,-0.71404254,-0.0090951035,0.019950273,-0.006049104,0.0022786006,0.078410104,6.028899,7.1951747,0,0,0,0,0,0,0,0,0,0,0,0,0,0,0,0,0,0,0,0,0
164,1.007292,-0.71367645,-0.009918021,-0.01200766,-0.029484922,0.0044091293,0.12509704,5.9977746,7.2514386,0,0,0,0,0,0,0,0,0,0,0,0,0,0,0,0,0,0,0,0,0
165,1.0070477,-0.71332145,-0.010564685,0.0082323635,-0.010310162,-0.004112986,0.10594343,6.063615,7.2514386,0,0,0,0,0,0,0,0,0,0,0,0,0,0,0,0,0,0,0,0,0
166,1.0073527,-0.7133077,-0.010245748,0.022080801,0.015256184,-0.004112986,0.060453594,6.014534,7.271789,0,0,0,0,0,0,0,0,0,0,0,0,0,0,0,0,0,0,0,0,0
167,1.0072656,-0.713777,-0.009571355,0.027407123,0.01419092,-0.0073087793,0.095169514,6.0875573,7.2981253,0,0,0,0,0,0,0,0,0,0,0,0,0,0,0,0,0,0,0,0,0
168,1.0069762,-0.7143904,-0.009020674,0.02421133,0.013125655,0.0012133361,0.002992752,6.1857195,7.187992,0,0,0,0,0,0,0,0,0,0,0,0,0,0,0,0,0,0,0,0,0
169,1.0063262,-0.7141343,-0.009266987,-0.0066813384,0.0077993334,0.028910212,0.073621705,5.990592,7.282563,0,0,0,0,0,0,0,0,0,0,0,0,0,0,0,0,0,0,0,0,0
170,1.0055603,-0.7135586,-0.009930049,7.755125E-4,-0.009244897,0.006539658,0.10594343,6.052841,7.319673,0,0,0,0,0,0,0,0,0,0,0,0,0,0,0,0,0,0,0,0,0
171,1.0054718,-0.7132132,-0.010154134,0.011428157,3.4248253E-4,0.0076049226,0.074818805,6.0552354,7.301717,0,0,0,0,0,0,0,0,0,0,0,0,0,0,0,0,0,0,0,0,0
172,1.0045096,-0.71321654,-0.010674432,0.019950273,0.009929863,0.018257568,0.20530279,5.969044,7.306505,0,0,0,0,0,0,0,0,0,0,0,0,0,0,0,0,0,0,0,0,0
173,1.0040975,-0.7133983,-0.010825028,0.025276594,-0.008179633,-0.019026687,0.16460137,5.982212,7.1724296,0,0,0,0,0,0,0,0,0,0,0,0,0,0,0,0,0,0,0,0,0
174,1.0045208,-0.7137374,-0.01026969,-0.0024202808,0.0014077469,-0.013700366,0.044891283,6.0875573,7.065888,0,0,0,0,0,0,0,0,0,0,0,0,0,0,0,0,0,0,0,0,0
175,1.0045576,-0.7127658,-0.0099934675,-0.010942396,0.032300416,-0.001982457,0.12868834,6.018125,7.32925,0,0,0,0,0,0,0,0,0,0,0,0,0,0,0,0,0,0,0,0,0
176,1.0057547,-0.712489,-0.008421195,0.0082323635,0.01419092,-0.010504573,-0.061650693,6.154595,7.4166384,0,0,0,0,0,0,0,0,0,0,0,0,0,0,0,0,0,0,0,0,0
177,1.0059569,-0.7119148,-0.009125282,-0.014138189,-0.028419657,0.022518625,0.01616086,6.0923457,7.373543,0,0,0,0,0,0,0,0,0,0,0,0,0,0,0,0,0,0,0,0,0
178,1.004987,-0.71136177,-0.010533883,0.010362892,-0.012440691,0.0076049226,0.18375498,5.976227,7.2885485,0,0,0,0,0,0,0,0,0,0,0,0,0,0,0,0,0,0,0,0,0
179,1.0050956,-0.7116056,-0.010219522,0.015689215,0.010995126,-0.010504573,0.074818805,6.028899,7.2298903,0,0,0,0,0,0,0,0,0,0,0,0,0,0,0,0,0,0,0,0,0
180,1.0048686,-0.71160716,-0.010065456,0.019950273,0.0056688045,0.011865981,0.11192893,6.0468554,7.277775,0,0,0,0,0,0,0,0,0,0,0,0,0,0,0,0,0,0,0,0,0
181,1.0038949,-0.71165466,-0.011061707,0.009297628,-0.018832278,0.0012133361,0.23283611,5.943905,7.2670007,0,0,0,0,0,0,0,0,0,0,0,0,0,0,0,0,0,0,0,0,0
182,1.0048798,-0.7115353,-0.01076808,0.009297628,-0.0071143685,-0.021157216,0.01616086,6.0205193,7.2622123,0,0,0,0,0,0,0,0,0,0,0,0,0,0,0,0,0,0,0,0,0
183,1.005365,-0.71151173,-0.0105584655,0.007167099,-0.011375426,0.0012133361,0.022146367,6.088754,7.271789,0,0,0,0,0,0,0,0,0,0,0,0,0,0,0,0,0,0,0,0,0
184,1.0043274,-0.71146077,-0.0115220845,0.0029060415,-0.015636483,0.006539658,0.14185645,6.060024,7.1939774,0,0,0,0,0,0,0,0,0,0,0,0,0,0,0,0,0,0,0,0,0
185,1.0047697,-0.7108703,-0.0112609,-0.005616074,0.0056688045,0.0012133361,-0.004189853,6.110302,7.3938932,0,0,0,0,0,0,0,0,0,0,0,0,0,0,0,0,0,0,0,0,0
186,1.0047126,-0.7101928,-0.011888602,-0.0013550164,-0.024158599,0.027844947,0.01616086,6.0336876,7.3950906,0,0,0,0,0,0,0,0,0,0,0,0,0,0,0,0,0,0,0,0,0
187,1.0030102,-0.71020603,-0.013284121,0.021015536,-0.010310162,0.029975476,0.13706805,6.048053,7.2514386,0,0,0,0,0,0,0,0,0,0,0,0,0,0,0,0,0,0,0,0,0
188,1.0010996,-0.7109088,-0.014154206,0.06469138,0.037626736,0.051280763,0.15741876,6.036082,7.439383,0,0,0,0,0,0,0,0,0,0,0,0,0,0,0,0,0,0,0,0,0
189,0.9979526,-0.71516585,-0.013991984,0.17760941,0.068519406,0.05447656,0.16699557,6.006154,7.2179193,0,0,0,0,0,0,0,0,0,0,0,0,0,0,0,0,0,0,0,0,0
190,0.99786353,-0.71803623,-0.012776897,0.087061934,-0.023093335,0.03849759,-0.13706805,6.2587423,7.475296,0,0,0,0,0,0,0,0,0,0,0,0,0,0,0,0,0,0,0,0,0
191,0.99481297,-0.7189821,-0.019446397,0.016754478,-0.21484093,0.06939026,0.02932897,6.1713543,7.2753806,0,0,0,0,0,0,0,0,0,0,0,0,0,0,0,0,0,0,0,0,0
192,0.9918123,-0.71878076,-0.026106035,0.04125556,-0.1530556,0.080042906,0.15382746,6.0911484,7.363966,0,0,0,0,0,0,0,0,0,0,0,0,0,0,0,0,0,0,0,0,0
193,0.9862109,-0.7226035,-0.031542353,0.15310833,-0.05079021,0.03317127,0.3728969,6.312612,7.1233487,0,0,0,0,0,0,0,0,0,0,0,0,0,0,0,0,0,0,0,0,0
194,0.9836728,-0.7265435,-0.031377636,0.11156301,0.0717152,0.06939026,0.15023616,6.2336035,6.9689226,0,0,0,0,0,0,0,0,0,0,0,0,0,0,0,0,0,0,0,0,0
195,0.97567225,-0.729435,-0.032710485,0.010362892,0.010995126,0.10241345,0.3693056,6.676531,6.8121023,0,0,0,0,0,0,0,0,0,0,0,0,0,0,0,0,0,0,0,0,0
196,0.9686909,-0.7261061,-0.037703063,-0.17605838,-0.07422603,0.24089783,-0.40880993,6.8118033,7.1832037,0,0,0,0,0,0,0,0,0,0,0,0,0,0,0,0,0,0,0,0,0
197,0.95612556,-0.720697,-0.047842838,-0.19097209,-0.067834444,0.44223282,0.05686229,6.088754,6.9665284,0,0,0,0,0,0,0,0,0,0,0,0,0,0,0,0,0,0,0,0,0
198,0.9411,-0.7156691,-0.046270177,-0.05994456,0.719396,0.13543665,0.729633,6.0253077,7.20116,0,0,0,0,0,0,0,0,0,0,0,0,0,0,0,0,0,0,0,0,0
199,0.9457862,-0.7132541,-0.028435653,0.055104,0.3859682,0.106674515,0.3716998,6.0923457,8.793304,0,0,0,0,0,0,0,0,0,0,0,0,0,0,0,0,0,0,0,0,0
200,0.9445282,-0.7171867,-0.023424238,0.20956734,0.21019958,0.20148306,-0.4973954,6.7100496,7.6680293,0,0,0,0,0,0,0,0,0,0,0,0,0,0,0,0,0,0,0,0,0
201,0.9340664,-0.7220113,-0.027782094,0.2830706,0.28902915,0.38257802,1.0923545,5.370494,7.9278,0,0,0,0,0,0,0,0,0,0,0,0,0,0,0,0,0,0,0,0,0
202,0.9255454,-0.73067254,-0.0300301,0.4055523,0.12388839,-0.004088751,1.0133458,5.7990556,7.7087307,0,0,0,0,0,0,0,0,0,0,0,0,0,0,0,0,0,0,0,0,0
203,0.92868006,-0.7480791,-0.018369935,0.58345145,0.41470557,-0.19264056,0.7691373,5.92116,6.839636,0,0,0,0,0,0,0,0,0,0,0,0,0,0,0,0,0,0,0,0,0
204,0.93645036,-0.76470387,0.0021547154,0.8210054,0.7396112,-0.33432072,0.56443304,5.9271455,6.923433,0,0,0,0,0,0,0,0,0,0,0,0,0,0,0,0,0,0,0,0,0
205,0.9512709,-0.79579055,0.039308887,0.99996984,0.7491986,-0.2810575,-0.089184016,6.7076554,6.7486563,0,0,0,0,0,0,0,0,0,0,0,0,0,0,0,0,0,0,0,0,0
206,0.9574331,-0.82147896,0.06093445,0.97546875,0.5968658,-0.12339836,-0.26635495,6.6837134,6.3021374,0,0,0,0,0,0,0,0,0,0,0,0,0,0,0,0,0,0,0,0,0
207,0.9657274,-0.8467917,0.07548359,0.64630204,0.026949326,-0.1074194,-0.26156655,6.1881137,6.4948707,0,0,0,0,0,0,0,0,0,0,0,0,0,0,0,0,0,0,0,0,0
208,0.9804485,-0.86288714,0.07378066,0.37785542,-0.6164704,-0.4046282,-0.7068881,6.7699046,5.752668,0,0,0,0,0,0,0,0,0,0,0,0,0,0,0,0,0,0,0,0,0
209,0.99519944,-0.86672896,0.07178327,0.09023402,-0.586643,-0.29703647,-1.0540473,7.984962,5.993285,0,0,0,0,0,0,0,0,0,0,0,0,0,0,0,0,0,0,0,0,0
210,0.99905306,-0.8735568,0.058446087,0.29902586,-0.49396497,-0.0019582224,-0.6302736,7.2475476,6.0387754,0,0,0,0,0,0,0,0,0,0,0,0,0,0,0,0,0,0,0,0,0
211,1.0017232,-0.8833158,0.05613995,0.37785542,-0.17118986,-0.21394585,-0.55725044,7.012916,5.4246626,0,0,0,0,0,0,0,0,0,0,0,0,0,0,0,0,0,0,0,0,0
212,1.0124433,-0.8962389,0.06898763,0.3096785,0.14945473,-0.12126784,-0.83617496,7.8580694,5.3899465,0,0,0,0,0,0,0,0,0,0,0,0,0,0,0,0,0,0,0,0,0
213,1.005484,-0.90002537,0.06712644,-0.15371153,-0.12644875,0.10563348,-0.1921347,6.974609,4.648941,0,0,0,0,0,0,0,0,0,0,0,0,0,0,0,0,0,0,0,0,0
214,1.0027372,-0.8848841,0.0639713,-0.5712952,0.17502108,0.03958709,-0.5201403,6.1857195,5.6664767,0,0,0,0,0,0,0,0,0,0,0,0,0,0,0,0,0,0,0,0,0
215,1.0100538,-0.8688984,0.08321621,-0.3582423,0.42748874,-0.02539404,-2.343325,7.1697364,6.031593,0,0,0,0,0,0,0,0,0,0,0,0,0,0,0,0,0,0,0,0,0
216,0.9917129,-0.8573472,0.0766813,-0.48607403,0.33481073,0.71709526,-0.025737667,7.558794,7.7159133,0,0,0,0,0,0,0,0,0,0,0,0,0,0,0,0,0,0,0,0,0
217,0.9634583,-0.84662557,0.05163608,-0.23893268,-0.51846606,0.10563348,0.83378077,8.329727,7.739856,0,0,0,0,0,0,0,0,0,0,0,0,0,0,0,0,0,0,0,0,0
218,0.9678848,-0.83861303,0.033434533,-0.3230886,-0.89237386,0.13865668,-1.1354501,7.131429,7.102998,0,0,0,0,0,0,0,0,0,0,0,0,0,0,0,0,0,0,0,0,0
219,0.9575909,-0.8227392,-0.0057908017,-0.5254811,-0.7517507,0.38578978,-0.39205053,7.093122,7.0275807,0,0,0,0,0,0,0,0,0,0,0,0,0,0,0,0,0,0,0,0,0
220,0.9448936,-0.8146006,-0.025435254,0.16267973,0.112178735,0.4326614,0.53091425,6.9937625,8.07265,0,0,0,0,0,0,0,0,0,0,0,0,0,0,0,0,0,0,0,0,0
221,0.9245819,-0.83178806,-0.028572243,0.6963772,0.38169062,0.2984381,0.374094,6.9734116,6.461352,0,0,0,0,0,0,0,0,0,0,0,0,0,0,0,0,0,0,0,0,0
222,0.91093844,-0.85066766,-0.025450123,0.4087558,0.31244844,0.22280432,-0.10474633,7.3493013,5.919065,0,0,0,0,0,0,0,0,0,0,0,0,0,0,0,0,0,0,0,0,0
223,0.90134096,-0.85584915,-0.02920633,0.1573534,0.015239673,0.34104866,-0.2208651,7.3253593,6.509236,0,0,0,0,0,0,0,0,0,0,0,0,0,0,0,0,0,0,0,0,0
224,0.8785406,-0.86239743,-0.047006324,0.30329463,-0.027370904,0.45609722,0.3477578,7.094319,6.3165026,0,0,0,0,0,0,0,0,0,0,0,0,0,0,0,0,0,0,0,0,0
225,0.8533271,-0.8714782,-0.062919565,0.40449476,0.0354797,0.3847245,1.1785458,6.5783687,5.607819,0,0,0,0,0,0,0,0,0,0,0,0,0,0,0,0,0,0,0,0,0
226,0.8282339,-0.88185275,-0.07687924,0.26068404,0.08767766,0.20682535,1.2683283,6.8046207,5.4091,0,0,0,0,0,0,0,0,0,0,0,0,0,0,0,0,0,0,0,0,0
227,0.81545967,-0.8870623,-0.08068066,0.24363983,0.21124832,0.1546274,1.0001777,7.0332665,5.783793,0,0,0,0,0,0,0,0,0,0,0,0,0,0,0,0,0,0,0,0,0
228,0.8003361,-0.8954381,-0.08261918,0.2745325,0.24001047,0.26115385,0.7248446,7.260716,5.8280854,0,0,0,0,0,0,0,0,0,0,0,0,0,0,0,0,0,0,0,0,0
229,0.7778075,-0.8990577,-0.09412775,0.09556807,0.05785025,0.3218739,1.2635399,6.990171,6.1022215,0,0,0,0,0,0,0,0,0,0,0,0,0,0,0,0,0,0,0,0,0
230,0.76509345,-0.89783275,-0.10575926,0.022064822,-0.17757319,0.14610527,1.4119805,6.7555394,6.3153057,0,0,0,0,0,0,0,0,0,0,0,0,0,0,0,0,0,0,0,0,0
231,0.7614133,-0.8970938,-0.11573725,-0.01202364,-0.22551009,-0.022206502,0.86251116,7.261913,5.9202623,0,0,0,0,0,0,0,0,0,0,0,0,0,0,0,0,0,0,0,0,0
232,0.763338,-0.89659685,-0.11764457,0.054022755,-0.066785686,0.05981886,0.46267948,7.621043,6.4936733,0,0,0,0,0,0,0,0,0,0,0,0,0,0,0,0,0,0,0,0,0
233,0.7582361,-0.899007,-0.12532625,0.19250713,-0.12750576,0.03638304,1.1773487,6.777087,6.2746043,0,0,0,0,0,0,0,0,0,0,0,0,0,0,0,0,0,0,0,0,0
234,0.7588917,-0.90423244,-0.12997471,0.12859127,-0.23829326,-0.22247621,1.4754268,6.974609,5.783793,0,0,0,0,0,0,0,0,0,0,0,0,0,0,0,0,0,0,0,0,0
235,0.77346694,-0.9098062,-0.12159737,0.14350496,-0.06465516,-0.5186197,0.54168814,7.4342957,5.133767,0,0,0,0,0,0,0,0,0,0,0,0,0,0,0,0,0,0,0,0,0
236,0.79863364,-0.91391146,-0.09943643,-0.006715693,0.21655548,-0.2256531,-0.0053869537,7.9598227,6.318897,0,0,0,0,0,0,0,0,0,0,0,0,0,0,0,0,0,0,0,0,0
237,0.80264705,-0.9109583,-0.10188358,-0.099393696,-0.5238033,-0.088233985,0.6015432,6.9602437,5.677251,0,0,0,0,0,0,0,0,0,0,0,0,0,0,0,0,0,0,0,0,0
238,0.81260425,-0.90566283,-0.110802636,-0.34014347,-0.4577569,-0.18943411,0.28790274,7.569568,5.418677,0,0,0,0,0,0,0,0,0,0,0,0,0,0,0,0,0,0,0,0,0
239,0.8283135,-0.89921844,-0.10706018,-0.09406738,-0.42047265,-0.024318123,-1.1043255,9.124602,7.2370734,0,0,0,0,0,0,0,0,0,0,0,0,0,0,0,0,0,0,0,0,0
240,0.8118638,-0.90606993,-0.124899775,0.37784475,3.0679617E-4,0.5317499,-0.08678981,8.569147,5.9597664,0,0,0,0,0,0,0,0,0,0,0,0,0,0,0,0,0,0,0,0,0
241,0.77652884,-0.91429657,-0.14603494,0.31286365,0.31562507,0.73308486,0.11432313,7.609072,5.832874,0,0,0,0,0,0,0,0,0,0,0,0,0,0,0,0,0,0,0,0,0
242,0.7536744,-0.91850823,-0.15599266,0.46732697,0.33160403,1.1272327,-3.127426,9.79857,7.877522,0,0,0,0,0,0,0,0,0,0,0,0,0,0,0,0,0,0,0,0,0
243,0.6589866,-0.928209,-0.2300662,0.9062159,-0.100893326,2.566405,-3.517681,9.9434185,7.739856,0,0,0,0,0,0,0,0,0,0,0,0,0,0,0,0,0,0,0,0,0
244,0.53565633,-0.9300621,-0.33735332,1.2343174,0.007763647,3.17041,-0.14185645,7.2978263,6.7187285,0,0,0,0,0,0,0,0,0,0,0,0,0,0,0,0,0,0,0,0,0
245,0.3642121,-0.9261821,-0.47228843,1.5048945,0.1377259,3.646583,-5.4713492,10.015245,7.5375457,0,0,0,0,0,0,0,0,0,0,0,0,0,0,0,0,0,0,0,0,0
246,0.1887077,-0.88998294,-0.612329,2.0279393,0.13559538,6.106279,-5.513248,6.2874727,10.210671,0,0,0,0,0,0,0,0,0,0,0,0,0,0,0,0,0,0,0,0,0
247,-0.08338888,-0.78311265,-0.8642951,2.002373,-1.4399307,6.4429026,2.9694088,1.1674726,5.2020016,0,0,0,0,0,0,0,0,0,0,0,0,0,0,0,0,0,0,0,0,0
248,-0.31740546,-0.65435785,-1.0687076,1.9789371,-1.4548444,5.076168,9.322423,2.3490112,1.5640123,0,0,0,0,0,0,0,0,0,0,0,0,0,0,0,0,0,0,0,0,0
249,-0.4947097,-0.5885998,-1.129343,4.1275754,3.3995657,3.8372655,9.256582,1.825878,1.8201919,0,0,0,0,0,0,0,0,0,0,0,0,0,0,0,0,0,0,0,0,0
250,-0.7277721,-0.5246448,-1.1086427,3.3222356,3.2355149,3.448444,13.336302,-0.87238723,4.280234,0,0,0,0,0,0,0,0,0,0,0,0,0,0,0,0,0,0,0,0,0
251,-0.83110476,-0.47465488,-1.1291894,0.6793146,-0.22979032,1.4883573,15.920843,-2.7470472,0.97025025,0,0,0,0,0,0,0,0,0,0,0,0,0,0,0,0,0,0,0,0,0
252,-0.8632473,-0.454844,-1.1422979,0.29265264,0.2900888,0.21427155,7.377134,1.1746552,3.0125043,0,0,0,0,0,0,0,0,0,0,0,0,0,0,0,0,0,0,0,0,0
253,-0.8967779,-0.43589708,-1.142153,0.05190288,-0.034816835,0.47526133,9.32362,0.22056583,3.9630024,0,0,0,0,0,0,0,0,0,0,0,0,0,0,0,0,0,0,0,0,0
254,-0.9108728,-0.4301529,-1.1474705,0.4822697,-0.008185226,-0.07974143,9.256582,1.884536,4.115034,0,0,0,0,0,0,0,0,0,0,0,0,0,0,0,0,0,0,0,0,0
255,-0.92754626,-0.44654572,-1.154387,0.65164673,0.07916646,-0.33114383,7.9876556,3.8346133,3.0304608,0,0,0,0,0,0,0,0,0,0,0,0,0,0,0,0,0,0,0,0,0
256,-0.9341082,-0.45926276,-1.1573304,0.44178966,0.050404318,-0.24166162,8.030751,4.6294885,3.032855,0,0,0,0,0,0,0,0,0,0,0,0,0,0,0,0,0,0,0,0,0
257,-0.9302787,-0.4688169,-1.1671978,-0.15582368,-0.45346576,-0.28001115,8.351574,4.8557405,2.8030117,0,0,0,0,0,0,0,0,0,0,0,0,0,0,0,0,0,0,0,0,0
258,-0.9098498,-0.4774959,-1.1734833,-0.17073739,-0.34693933,-0.30344698,6.6265516,5.5572414,3.1669302,0,0,0,0,0,0,0,0,0,0,0,0,0,0,0,0,0,0,0,0,0
259,-0.90024585,-0.48515257,-1.175069,0.25536838,0.073840134,0.0054797204,7.140108,5.4590793,3.4674027,0,0,0,0,0,0,0,0,0,0,0,0,0,0,0,0,0,0,0,0,0
260,-0.90937716,-0.48712838,-1.1831976,0.24684627,-0.14880013,0.025719745,8.780136,4.771943,2.665345,0,0,0,0,0,0,0,0,0,0,0,0,0,0,0,0,0,0,0,0,0
261,-0.9106674,-0.49146786,-1.1923048,0.04444603,-0.21804231,-0.22781318,8.19236,4.592378,2.1577742,0,0,0,0,0,0,0,0,0,0,0,0,0,0,0,0,0,0,0,0,0
262,-0.90278816,-0.49879363,-1.194075,-0.025861425,0.044012733,-0.13406992,7.2143283,4.625897,2.593519,0,0,0,0,0,0,0,0,0,0,0,0,0,0,0,0,0,0,0,0,0
263,-0.90572506,-0.49691102,-1.1933676,-0.11853943,0.061056964,-0.11915622,9.626487,3.6430771,2.5061307,0,0,0,0,0,0,0,0,0,0,0,0,0,0,0,0,0,0,0,0,0
264,-0.89948475,-0.5021095,-1.1933532,-0.51055676,-0.26704448,-0.78814226,11.607688,2.9080572,1.8154035,0,0,0,0,0,0,0,0,0,0,0,0,0,0,0,0,0,0,0,0,0
265,-0.87941474,-0.51855236,-1.1882324,-0.8865951,-0.26597923,-1.7223792,10.949283,2.1634605,1.951873,0,0,0,0,0,0,0,0,0,0,0,0,0,0,0,0,0,0,0,0,0
266,-0.8232,-0.5665873,-1.1590564,-1.0921911,0.057861168,-2.535176,9.024344,2.2316952,2.0512323,0,0,0,0,0,0,0,0,0,0,0,0,0,0,0,0,0,0,0,0,0
267,-0.7512716,-0.6268037,-1.1047438,-1.329745,0.15053917,-3.2542295,10.664372,0.7149685,2.1470003,0,0,0,0,0,0,0,0,0,0,0,0,0,0,0,0,0,0,0,0,0
268,-0.678382,-0.68771726,-1.0398021,-1.3893999,0.8834411,-4.791406,10.118495,0.099658646,0.717662,0,0,0,0,0,0,0,0,0,0,0,0,0,0,0,0,0,0,0,0,0
269,-0.5194555,-0.8012485,-0.844847,-1.5257721,2.0402992,-6.0462685,2.4271219,0.79517424,2.0979192,0,0,0,0,0,0,0,0,0,0,0,0,0,0,0,0,0,0,0,0,0
270,-0.25829846,-0.8604613,-0.6207255,-2.016859,1.4821005,-5.9663734,-1.2551602,1.967136,6.2434793,0,0,0,0,0,0,0,0,0,0,0,0,0,0,0,0,0,0,0,0,0
271,0.09887846,-0.88203555,-0.33783972,-2.0786443,-0.21380043,-5.7171016,-4.768651,5.803844,9.12131,0,0,0,0,0,0,0,0,0,0,0,0,0,0,0,0,0,0,0,0,0
272,0.37800434,-0.8562504,-0.16830568,-1.7079324,-2.0886657,-3.1945558,-13.823522,16.035465,11.331158,0,0,0,0,0,0,0,0,0,0,0,0,0,0,0,0,0,0,0,0,0
273,0.42595288,-0.8241137,-0.19119121,-1.0794263,-1.8766782,0.31975162,-3.292626,10.266636,9.416994,0,0,0,0,0,0,0,0,0,0,0,0,0,0,0,0,0,0,0,0,0
274,0.43475354,-0.8172858,-0.21088223,0.5962346,0.2943307,-0.27253538,0.84216046,6.5640035,8.56825,0,0,0,0,0,0,0,0,0,0,0,0,0,0,0,0,0,0,0,0,0
275,0.47537106,-0.8612826,-0.14660946,1.8841393,1.7857009,-1.1737491,-2.461838,8.924686,6.318897,0,0,0,0,0,0,0,0,0,0,0,0,0,0,0,0,0,0,0,0,0
276,0.51448816,-0.91863066,-0.06621321,1.3323324,1.1241717,0.22281258,-4.420295,10.506057,6.120178,0,0,0,0,0,0,0,0,0,0,0,0,0,0,0,0,0,0,0,0,0
277,0.4601582,-0.94269645,-0.096483916,0.63138837,0.08021255,1.283816,1.2946646,6.974609,4.2862196,0,0,0,0,0,0,0,0,0,0,0,0,0,0,0,0,0,0,0,0,0
278,0.37479407,-0.9467343,-0.15594962,0.22552261,-0.11260031,0.3623622,3.9785647,5.4734445,3.8588545,0,0,0,0,0,0,0,0,0,0,0,0,0,0,0,0,0,0,0,0,0
279,0.38369682,-0.958953,-0.14037073,0.25428474,0.37316027,-0.6166158,1.3138182,7.498939,3.9677908,0,0,0,0,0,0,0,0,0,0,0,0,0,0,0,0,0,0,0,0,0
280,0.415065,-0.96690196,-0.105484605,0.2617416,0.45625088,-0.299167,-0.9044097,8.830115,5.373187,0,0,0,0,0,0,0,0,0,0,0,0,0,0,0,0,0,0,0,0,0
281,0.4134101,-0.9776823,-0.09613007,0.3032869,0.28687385,0.14291774,0.56563014,7.3852143,5.072715,0,0,0,0,0,0,0,0,0,0,0,0,0,0,0,0,0,0,0,0,0
282,0.41707382,-0.97991854,-0.0930315,0.12432248,-0.009269665,-0.22672902,0.82899237,7.1948752,5.8747725,0,0,0,0,0,0,0,0,0,0,0,0,0,0,0,0,0,0,0,0,0
283,0.4486205,-0.98481447,-0.07728525,0.12112669,-0.36719853,-0.5431126,0.11432313,8.103475,5.817312,0,0,0,0,0,0,0,0,0,0,0,0,0,0,0,0,0,0,0,0,0
284,0.48026714,-0.98873377,-0.06651909,0.13604039,-0.550424,-0.3833229,-0.85173726,8.949825,5.3181205,0,0,0,0,0,0,0,0,0,0,0,0,0,0,0,0,0,0,0,0,0
285,0.49464956,-0.9966012,-0.07084359,0.17225939,-0.40235224,-0.10209308,-0.14544775,8.24593,4.421492,0,0,0,0,0,0,0,0,0,0,0,0,0,0,0,0,0,0,0,0,0
286,0.5031748,-1.0045533,-0.06949197,0.32779837,0.012046543,-0.14577983,0.1945289,7.9693995,5.0691237,0,0,0,0,0,0,0,0,0,0,0,0,0,0,0,0,0,0,0,0,0
287,0.5147674,-1.0194694,-0.05540763,0.44497746,0.16224882,-0.24058837,-0.27952304,8.499715,3.803788,0,0,0,0,0,0,0,0,0,0,0,0,0,0,0,0,0,0,0,0,0
288,0.52981085,-1.0274904,-0.04111053,-0.019477827,-0.03482509,-0.01368705,-0.9175778,8.793005,4.208408,0,0,0,0,0,0,0,0,0,0,0,0,0,0,0,0,0,0,0,0,0
289,0.5264478,-1.023801,-0.04963545,-0.21442121,-0.24681272,0.14290681,0.076015905,7.938275,4.6273932,0,0,0,0,0,0,0,0,0,0,0,0,0,0,0,0,0,0,0,0,0
290,0.5255893,-1.018144,-0.058952145,-0.1100253,-0.19141896,-0.07866818,0.26874915,7.927501,4.7219644,0,0,0,0,0,0,0,0,0,0,0,0,0,0,0,0,0,0,0,0,0
291,0.5340263,-1.0190814,-0.053730674,0.15096448,0.13135616,-0.1351272,0.06404489,8.315362,4.860828,0,0,0,0,0,0,0,0,0,0,0,0,0,0,0,0,0,0,0,0,0
292,0.5437601,-1.025641,-0.039265353,0.16268238,0.23255628,-0.16282406,0.24720132,8.023269,4.871602,0,0,0,0,0,0,0,0,0,0,0,0,0,0,0,0,0,0,0,0,0
293,0.56147945,-1.0277776,-0.022944419,0.036981188,0.017372865,-0.2427189,-0.076015905,8.078336,5.191228,0,0,0,0,0,0,0,0,0,0,0,0,0,0,0,0,0,0,0,0,0
294,0.5760315,-1.0277168,-0.015967015,-0.033326264,-0.21378952,-0.21182624,-0.16340427,8.281843,4.9027267,0,0,0,0,0,0,0,0,0,0,0,0,0,0,0,0,0,0,0,0,0
295,0.5900295,-1.0279648,-0.010190411,0.0028927256,-0.11578519,-0.22567467,0.04369418,8.056788,4.4179006,0,0,0,0,0,0,0,0,0,0,0,0,0,0,0,0,0,0,0,0,0
296,0.60573584,-1.0288364,0.0023281088,0.029524336,0.10792034,-0.34924534,-0.109534726,7.994539,4.601057,0,0,0,0,0,0,0,0,0,0,0,0,0,0,0,0,0,0,0,0,0
297,0.63712496,-1.0329446,0.034078553,0.24257722,0.26984054,-0.3268748,-1.1534066,8.910321,5.16968,0,0,0,0,0,0,0,0,0,0,0,0,0,0,0,0,0,0,0,0,0
298,0.65379983,-1.0405111,0.051852267,0.1413771,0.070636086,0.019336147,-1.4598645,9.062353,4.609437,0,0,0,0,0,0,0,0,0,0,0,0,0,0,0,0,0,0,0,0,0
299,0.653936,-1.0409967,0.04911198,0.029524336,0.012046543,0.2153448,-1.3557167,8.699631,5.1780596,0,0,0,0,0,0,0,0,0,0,0,0,0,0,0,0,0,0,0,0,0
300,0.64541227,-1.0449805,0.037727825,0.21701087,-0.040151414,0.55516416,-3.6182373,10.612598,6.045958,0,0,0,0,0,0,0,0,0,0,0,0,0,0,0,0,0,0,0,0,0
301,0.6013064,-1.0540875,-0.007714519,0.5184807,-0.14135154,1.4659653,-2.2930467,9.602245,5.921459,0,0,0,0,0,0,0,0,0,0,0,0,0,0,0,0,0,0,0,0,0
302,0.5091491,-1.0697315,-0.09614343,0.7826559,-0.07744659,1.8249702,-6.7223196,11.709143,6.5403605,0,0,0,0,0,0,0,0,0,0,0,0,0,0,0,0,0,0,0,0,0
303,0.3745006,-1.0776223,-0.22359607,1.2183491,-0.1520151,4.494523,-9.208698,13.298893,6.6840124,0,0,0,0,0,0,0,0,0,0,0,0,0,0,0,0,0,0,0,0,0
304,0.016908985,-1.0349629,-0.55509317,1.3387239,-0.49183446,6.361932,-5.490503,6.145018,5.8891377,0,0,0,0,0,0,0,0,0,0,0,0,0,0,0,0,0,0,0,0,0
305,-0.29640993,-0.9209313,-0.8558852,1.7989181,-0.35228482,6.402412,0.9211691,3.5844193,6.6349316,0,0,0,0,0,0,0,0,0,0,0,0,0,0,0,0,0,0,0,0,0
306,-0.46241096,-0.83318084,-1.011229,1.9725562,-1.1246015,5.695076,-0.092775315,4.1686044,3.3321302,0,0,0,0,0,0,0,0,0,0,0,0,0,0,0,0,0,0,0,0,0
307,-0.7024669,-0.6634258,-1.2079217,2.3166366,-0.6729294,6.4162602,6.341642,-0.9178771,-2.782661,0,0,0,0,0,0,0,0,0,0,0,0,0,0,0,0,0,0,0,0,0
308,-0.86021507,-0.5348201,-1.2559954,2.4327505,3.429404,4.7938623,19.267937,-2.9732993,-2.6761189,0,0,0,0,0,0,0,0,0,0,0,0,0,0,0,0,0,0,0,0,0
309,-0.9839225,-0.43904257,-1.1938695,0.7219358,2.2512214,1.735488,15.80233,-3.7322612,3.6864722,0,0,0,0,0,0,0,0,0,0,0,0,0,0,0,0,0,0,0,0,0
310,-1.0113051,-0.4139617,-1.1843036,-0.34545913,-0.16053721,0.31868637,8.616134,-0.14814124,2.7515364,0,0,0,0,0,0,0,0,0,0,0,0,0,0,0,0,0,0,0,0,0
311,-1.0161827,-0.39500323,-1.1800203,-0.007770305,0.34013706,0.5786109,8.185177,1.5696985,3.86484,0,0,0,0,0,0,0,0,0,0,0,0,0,0,0,0,0,0,0,0,0
312,-1.0417613,-0.3728768,-1.1742647,0.08916876,0.29539597,0.2430526,13.998299,0.27682957,4.2503066,0,0,0,0,0,0,0,0,0,0,0,0,0,0,0,0,0,0,0,0,0
313,-1.0362703,-0.3870779,-1.1705965,0.24469736,-0.11473084,-1.0416563,8.30369,2.773982,3.9534256,0,0,0,0,0,0,0,0,0,0,0,0,0,0,0,0,0,0,0,0,0
314,-1.0147606,-0.4260009,-1.1748563,0.14562777,-0.25854155,-0.6539,5.0236335,5.7008934,2.7156234,0,0,0,0,0,0,0,0,0,0,0,0,0,0,0,0,0,0,0,0,0
315,-1.0082834,-0.43267775,-1.1812141,-0.026945064,-0.1967562,-0.048829857,8.599374,4.8701057,2.8018146,0,0,0,0,0,0,0,0,0,0,0,0,0,0,0,0,0,0,0,0,0
316,-0.99761814,-0.43989775,-1.1887437,-0.089795664,-0.20847411,-0.28957963,7.994838,5.5931544,2.3828292,0,0,0,0,0,0,0,0,0,0,0,0,0,0,0,0,0,0,0,0,0
317,-0.98343426,-0.44920337,-1.18934,-0.052511413,-0.043358125,-0.068004616,6.681618,5.4495025,2.6880898,0,0,0,0,0,0,0,0,0,0,0,0,0,0,0,0,0,0,0,0,0
318,-0.9785283,-0.44665137,-1.1927228,-0.0407935,-0.10620873,0.13759142,8.465299,4.506187,2.8868086,0,0,0,0,0,0,0,0,0,0,0,0,0,0,0,0,0,0,0,0,0
319,-0.9783709,-0.44565234,-1.1953132,0.11260457,0.040797763,-0.0051540155,8.4425535,4.2416277,2.843713,0,0,0,0,0,0,0,0,0,0,0,0,0,0,0,0,0,0,0,0,0
320,-0.97800744,-0.44729394,-1.1966109,0.059341352,0.004578773,-0.038177215,8.198345,4.1291003,2.771887,0,0,0,0,0,0,0,0,0,0,0,0,0,0,0,0,0,0,0,0,0
321,-0.9766479,-0.44779614,-1.1993673,-0.013096627,-0.1008824,-0.056286708,8.670003,3.9603088,2.8688521,0,0,0,0,0,0,0,0,0,0,0,0,0,0,0,0,0,0,0,0,0
322,-0.9741545,-0.4506934,-1.2030275,0.043362387,-0.09449082,-0.19370581,8.531139,4.186561,2.6964695,0,0,0,0,0,0,0,0,0,0,0,0,0,0,0,0,0,0,0,0,0
323,-0.97013885,-0.4593818,-1.2062438,0.061471883,-0.087033965,-0.27147013,8.306085,4.5277348,2.7024553,0,0,0,0,0,0,0,0,0,0,0,0,0,0,0,0,0,0,0,0,0
324,-0.96328187,-0.46775517,-1.2124627,-0.12601465,-0.27665102,-0.33325547,8.674791,4.3924623,2.5181017,0,0,0,0,0,0,0,0,0,0,0,0,0,0,0,0,0,0,0,0,0
325,-0.9532553,-0.4770004,-1.2157087,-0.15051574,-0.16266774,-0.5058283,8.20433,4.566042,2.4690206,0,0,0,0,0,0,0,0,0,0,0,0,0,0,0,0,0,0,0,0,0
326,-0.9384069,-0.49160084,-1.215035,-0.12601465,-0.1552109,-0.49517566,8.031948,4.6199117,2.8042088,0,0,0,0,0,0,0,0,0,0,0,0,0,0,0,0,0,0,0,0,0
327,-0.9295695,-0.5012325,-1.2197344,-0.20484422,-0.3789164,-0.59104943,8.68796,4.3254247,2.3050177,0,0,0,0,0,0,0,0,0,0,0,0,0,0,0,0,0,0,0,0,0
328,-0.91186994,-0.520107,-1.2247835,-0.27515167,-0.31713107,-0.75829595,8.236652,4.578013,1.9554642,0,0,0,0,0,0,0,0,0,0,0,0,0,0,0,0,0,0,0,0,0
329,-0.89286935,-0.534343,-1.2224623,-0.42748448,-0.24256258,-0.8339297,8.430583,4.485836,2.8975825,0,0,0,0,0,0,0,0,0,0,0,0,0,0,0,0,0,0,0,0,0
330,-0.8707557,-0.5548862,-1.2218173,-0.45518136,-0.6324493,-1.0608311,9.539098,3.6933553,2.973,0,0,0,0,0,0,0,0,0,0,0,0,0,0,0,0,0,0,0,0,0
331,-0.8475131,-0.5846415,-1.2319485,-0.62881947,-0.8018264,-1.7010549,11.812392,2.0233998,1.0851719,0,0,0,0,0,0,0,0,0,0,0,0,0,0,0,0,0,0,0,0,0
332,-0.83098966,-0.62623096,-1.2145131,-0.36996022,0.7886134,-2.9633934,11.815984,0.5880758,0.20530279,0,0,0,0,0,0,0,0,0,0,0,0,0,0,0,0,0,0,0,0,0
333,-0.78962517,-0.723939,-1.1197319,-0.23680216,1.9114021,-4.264081,9.36073,0.25528175,2.1877017,0,0,0,0,0,0,0,0,0,0,0,0,0,0,0,0,0,0,0,0,0
334,-0.65318185,-0.820606,-1.0039477,0.059341352,0.9558599,-4.8222795,2.830545,3.3845034,5.7263317,0,0,0,0,0,0,0,0,0,0,0,0,0,0,0,0,0,0,0,0,0
335,-0.5201862,-0.9368086,-0.8938232,-0.73641115,-1.0212709,-5.04492,4.611831,2.3442228,1.4012065,0,0,0,0,0,0,0,0,0,0,0,0,0,0,0,0,0,0,0,0,0
336,-0.18817031,-1.0545464,-0.6393269,-1.2349707,-0.06574519,-6.5256214,-0.038905777,3.0995934,1.3425486,0,0,0,0,0,0,0,0,0,0,0,0,0,0,0,0,0,0,0,0,0
337,0.18394876,-1.0915718,-0.3142206,-1.4703941,-0.18718533,-5.721347,-13.114839,12.5387335,5.3683987,0,0,0,0,0,0,0,0,0,0,0,0,0,0,0,0,0,0,0,0,0
338,0.45206323,-1.0543252,-0.118910186,-1.8709335,-1.4463279,-1.6115565,-6.667253,14.290092,7.6488757,0,0,0,0,0,0,0,0,0,0,0,0,0,0,0,0,0,0,0,0,0
339,0.5311305,-1.0137515,-0.10727798,-1.0293746,-1.3387362,-1.1566886,-0.12150574,7.0871363,8.448539,0,0,0,0,0,0,0,0,0,0,0,0,0,0,0,0,0,0,0,0,0
340,0.67440253,-1.008504,-0.021211997,0.2734438,-0.52700466,-2.4137006,-3.2734723,8.43986,6.296152,0,0,0,0,0,0,0,0,0,0,0,0,0,0,0,0,0,0,0,0,0
341,0.80436045,-1.018679,0.08438361,0.5994147,-0.1285958,-1.5401838,-9.586982,14.209887,5.433042,0,0,0,0,0,0,0,0,0,0,0,0,0,0,0,0,0,0,0,0,0
342,0.82905656,-1.0361735,0.10237692,0.4044713,-0.06894098,1.0505393,-4.777031,11.09503,4.1940427,0,0,0,0,0,0,0,0,0,0,0,0,0,0,0,0,0,0,0,0,0
343,0.74477816,-1.0470046,0.027482849,0.26598695,-0.13924843,1.0771708,0.27952304,6.489783,4.3341036,0,0,0,0,0,0,0,0,0,0,0,0,0,0,0,0,0,0,0,0,0
344,0.7232808,-1.0577507,0.008146187,0.39488393,-0.11261682,0.12482449,-0.43514615,8.378808,3.5942953,0,0,0,0,0,0,0,0,0,0,0,0,0,0,0,0,0,0,0,0,0
345,0.71210986,-1.0767721,0.002006069,0.39062288,-0.015677763,0.26650465,-0.56443304,8.937854,2.473809,0,0,0,0,0,0,0,0,0,0,0,0,0,0,0,0,0,0,0,0,0
346,0.66677874,-1.0825592,-0.027833223,-0.06424503,0.1441119,0.61591136,1.0600328,7.591116,2.6833014,0,0,0,0,0,0,0,0,0,0,0,0,0,0,0,0,0,0,0,0,0
347,0.5975372,-1.0688285,-0.060247995,-0.32523483,0.12493714,0.22815514,2.867655,6.407183,4.827309,0,0,0,0,0,0,0,0,0,0,0,0,0,0,0,0,0,0,0,0,0
348,0.5895433,-1.0600661,-0.05621684,-0.1942073,-0.16907585,-0.53990054,1.9686323,7.126641,5.053561,0,0,0,0,0,0,0,0,0,0,0,0,0,0,0,0,0,0,0,0,0
349,0.640652,-1.0524145,-0.023279822,-0.28262424,-0.41408667,-0.75827974,-0.074818805,8.3668375,5.048773,0,0,0,0,0,0,0,0,0,0,0,0,0,0,0,0,0,0,0,0,0
350,0.691149,-1.0436784,0.0027534696,-0.20805573,-0.44817513,-0.60062057,-0.45310268,8.199243,5.312135,0,0,0,0,0,0,0,0,0,0,0,0,0,0,0,0,0,0,0,0,0
351,0.7322255,-1.0384861,0.021526648,0.03695509,-0.41515192,-0.7199302,-0.5859809,8.353669,6.0303955,0,0,0,0,0,0,0,0,0,0,0,0,0,0,0,0,0,0,0,0,0
352,0.77956814,-1.0408273,0.04698785,0.11471939,-0.64524907,-0.779585,-1.7328035,9.155726,4.968567,0,0,0,0,0,0,0,0,0,0,0,0,0,0,0,0,0,0,0,0,0
353,0.8255046,-1.0484853,0.071309865,0.17966351,-0.34168702,-0.33959326,-1.6154876,9.188048,3.804985,0,0,0,0,0,0,0,0,0,0,0,0,0,0,0,0,0,0,0,0,0
354,0.8350346,-1.0504245,0.07184731,-0.015279886,-0.17230998,-8.3916204E-4,-0.32022446,7.963414,4.530428,0,0,0,0,0,0,0,0,0,0,0,0,0,0,0,0,0,0,0,0,0
355,0.82694185,-1.0443944,0.059177,-0.19104852,-0.56965363,-0.2181531,1.216853,7.272687,5.4761376,0,0,0,0,0,0,0,0,0,0,0,0,0,0,0,0,0,0,0,0,0
356,0.8514951,-1.040259,0.058883704,0.023069633,-0.7688581,-0.5622335,0.17657238,8.0244665,4.957793,0,0,0,0,0,0,0,0,0,0,0,0,0,0,0,0,0,0,0,0,0
357,0.8816213,-1.0415735,0.0652081,0.008155931,-0.61972106,-0.45890287,-0.11671733,8.486547,4.2754455,0,0,0,0,0,0,0,0,0,0,0,0,0,0,0,0,0,0,0,0,0
358,0.8980505,-1.0334466,0.06044315,-0.27733493,-0.7337043,-0.38220382,0.25677812,7.248745,5.5060654,0,0,0,0,0,0,0,0,0,0,0,0,0,0,0,0,0,0,0,0,0
359,0.9415264,-1.0234396,0.06651786,-0.082391545,-0.8253171,-0.7806127,-0.4961983,7.3277535,5.583877,0,0,0,0,0,0,0,0,0,0,0,0,0,0,0,0,0,0,0,0,0
360,0.9954233,-1.0243607,0.093420126,0.20949091,-0.78377175,-0.97129506,-2.2691047,8.523658,4.6285906,0,0,0,0,0,0,0,0,0,0,0,0,0,0,0,0,0,0,0,0,0
361,1.060069,-1.0275526,0.121372625,0.11894343,-0.90947294,-0.6772821,-3.0148985,9.235932,4.586692,0,0,0,0,0,0,0,0,0,0,0,0,0,0,0,0,0,0,0,0,0
362,1.0892876,-1.0294455,0.11722527,0.110421315,-0.8689929,-0.27780792,-1.6980876,8.77864,3.851672,0,0,0,0,0,0,0,0,0,0,0,0,0,0,0,0,0,0,0,0,0
363,1.0985578,-1.0335006,0.111838646,0.1860551,-0.5526094,-0.13932353,-1.2228385,8.086716,4.4406457,0,0,0,0,0,0,0,0,0,0,0,0,0,0,0,0,0,0,0,0,0
364,1.1061859,-1.0402462,0.10242928,0.097638145,-0.692159,-0.10949613,-0.9044097,8.710405,3.9641995,0,0,0,0,0,0,0,0,0,0,0,0,0,0,0,0,0,0,0,0,0
365,1.0945477,-1.0396433,0.08103957,-0.16015585,-0.6900285,0.016205069,0.22565351,7.972991,4.0013094,0,0,0,0,0,0,0,0,0,0,0,0,0,0,0,0,0,0,0,0,0
366,1.1007162,-1.0270435,0.06409991,-0.4424509,-0.692159,-0.37794277,0.40282443,6.9758058,5.015254,0,0,0,0,0,0,0,0,0,0,0,0,0,0,0,0,0,0,0,0,0
367,1.1360087,-1.0119337,0.070389874,-0.32420656,-0.68044114,-0.72628427,-0.5093664,7.7275853,6.367978,0,0,0,0,0,0,0,0,0,0,0,0,0,0,0,0,0,0,0,0,0
368,1.1874061,-1.0041634,0.09069433,-0.07706522,-0.67404956,-0.7688948,-1.1653777,8.406342,5.6868277,0,0,0,0,0,0,0,0,0,0,0,0,0,0,0,0,0,0,0,0,0
369,1.2294526,-0.9902326,0.09187726,-0.45414245,-1.0788226,-0.5111277,-0.8972271,7.8281417,6.1848216,0,0,0,0,0,0,0,0,0,0,0,0,0,0,0,0,0,0,0,0,0
370,1.2556865,-0.97323674,0.074810356,-0.6405637,-1.6593916,-0.65174264,-0.61112,7.4594345,5.683236,0,0,0,0,0,0,0,0,0,0,0,0,0,0,0,0,0,0,0,0,0
371,1.2961909,-0.9516536,0.052505404,-0.44775087,-1.5166463,-0.51964986,-1.477821,7.764695,5.7478795,0,0,0,0,0,0,0,0,0,0,0,0,0,0,0,0,0,0,0,0,0
372,1.3080117,-0.94839174,0.035317317,-0.025906166,-0.9818835,-0.48662663,-0.2124854,7.1278377,4.3688197,0,0,0,0,0,0,0,0,0,0,0,0,0,0,0,0,0,0,0,0,0
373,1.3560789,-0.95349544,0.05908854,0.31497845,-0.31715852,-0.8328376,-3.115455,8.480561,4.494515,0,0,0,0,0,0,0,0,0,0,0,0,0,0,0,0,0,0,0,0,0
374,1.3884603,-0.9658179,0.09205666,0.58129454,0.02053031,-0.01791029,-4.7626657,11.000459,4.5603557,0,0,0,0,0,0,0,0,0,0,0,0,0,0,0,0,0,0,0,0,0
375,1.3563054,-0.98941904,0.077555105,0.2531931,-0.012492889,0.7597327,-1.1773487,9.990106,2.5983074,0,0,0,0,0,0,0,0,0,0,0,0,0,0,0,0,0,0,0,0,0
376,1.2997707,-0.9808622,0.034608513,-0.6363027,0.0024208133,0.79914755,0.19572599,8.708011,5.0439844,0,0,0,0,0,0,0,0,0,0,0,0,0,0,0,0,0,0,0,0,0
377,1.280163,-0.96050715,-0.0035185372,-0.39981398,0.019465044,0.9802425,1.8561049,6.5556235,7.840412,0,0,0,0,0,0,0,0,0,0,0,0,0,0,0,0,0,0,0,0,0
378,1.2679986,-0.9514177,-0.05102058,0.027357055,-0.099844575,0.54667985,2.35769,5.4758387,5.7239375,0,0,0,0,0,0,0,0,0,0,0,0,0,0,0,0,0,0,0,0,0
379,1.2700281,-0.95368654,-0.04588262,0.3192395,0.6053605,-0.09460933,-0.99898064,6.632238,5.5886655,0,0,0,0,0,0,0,0,0,0,0,0,0,0,0,0,0,0,0,0,0
380,1.2871897,-0.9771176,0.002958191,0.84121907,0.9089608,-0.3385549,-2.223615,9.271846,4.162918,0,0,0,0,0,0,0,0,0,0,0,0,0,0,0,0,0,0,0,0,0
381,1.3133527,-0.999599,0.054543585,0.32030478,0.37526336,-0.078630365,-3.6709096,9.86441,2.7862523,0,0,0,0,0,0,0,0,0,0,0,0,0,0,0,0,0,0,0,0,0
382,1.2911392,-0.9969345,0.042476848,-0.46372986,-0.17228255,0.8066044,-1.7016789,8.571542,3.6912606,0,0,0,0,0,0,0,0,0,0,0,0,0,0,0,0,0,0,0,0,0
383,1.2022179,-0.97761565,-0.033175886,-0.86853033,-0.3267459,1.1410974,1.5149311,9.130588,2.9933507,0,0,0,0,0,0,0,0,0,0,0,0,0,0,0,0,0,0,0,0,0
384,1.2101412,-0.9583152,-0.14475738,-1.0379074,-0.7997233,1.09103,0.38367084,8.089109,-0.6781576,0,0,0,0,0,0,0,0,0,0,0,0,0,0,0,0,0,0,0,0,0
385,1.1537226,-0.9378268,-0.138699,-0.34335497,2.698605,1.2167312,-0.16819267,6.4035916,5.587468,0,0,0,0,0,0,0,0,0,0,0,0,0,0,0,0,0,0,0,0,0
386,1.1338224,-0.9201207,-0.091175534,-0.39877242,1.9965711,0.70968956,-4.338892,7.6138606,7.566276,0,0,0,0,0,0,0,0,0,0,0,0,0,0,0,0,0,0,0,0,0
387,1.0900214,-0.912538,-0.06816985,-0.24111328,1.1773827,1.1954502,-1.6921021,7.962217,2.8844144,0,0,0,0,0,0,0,0,0,0,0,0,0,0,0,0,0,0,0,0,0
388,1.0822451,-0.9046397,-0.09917777,-0.46907988,2.7113636,1.5374,2.309806,5.456685,-0.57161564,0,0,0,0,0,0,0,0,0,0,0,0,0,0,0,0,0,0,0,0,0
389,1.0163937,-0.88256687,-0.040044494,-0.9473836,4.643753,0.8950456,1.4694413,5.198111,3.7355533,0,0,0,0,0,0,0,0,0,0,0,0,0,0,0,0,0,0,0,0,0
390,1.0026515,-0.8389758,0.10420581,-1.1923944,5.247758,0.6319252,-1.0301052,4.6115317,9.729437,0,0,0,0,0,0,0,0,0,0,0,0,0,0,0,0,0,0,0,0,0
391,1.0075758,-0.8054481,0.18874356,-0.5649537,2.491919,0.09183618,-2.9131448,3.781941,13.031041,0,0,0,0,0,0,0,0,0,0,0,0,0,0,0,0,0,0,0,0,0
392,1.0515878,-0.780507,0.23250337,-0.53832203,0.035419244,-1.1790243,-2.6689363,4.5013986,5.0571527,0,0,0,0,0,0,0,0,0,0,0,0,0,0,0,0,0,0,0,0,0
393,1.087397,-0.7569863,0.29284057,-0.0429741,1.9976363,-0.5824762,-4.4921207,6.8417306,10.603321,0,0,0,0,0,0,0,0,0,0,0,0,0,0,0,0,0,0,0,0,0
394,1.1041491,-0.7621867,0.3169911,-0.15695739,-1.6508944,-0.18087152,-5.8149176,9.500492,4.9242744,0,0,0,0,0,0,0,0,0,0,0,0,0,0,0,0,0,0,0,0,0
395,1.1161218,-0.7516494,0.26896006,-1.069889,-2.052499,-0.18193677,-2.4570496,6.494571,0.4890157,0,0,0,0,0,0,0,0,0,0,0,0,0,0,0,0,0,0,0,0,0
396,1.0599501,-0.6873563,0.24218085,-3.7724648,0.9792435,-0.12973882,1.1067197,4.506187,5.1756654,0,0,0,0,0,0,0,0,0,0,0,0,0,0,0,0,0,0,0,0,0
397,1.06252,-0.53177834,0.25776732,-3.9642124,0.14407621,-0.8775545,-2.2212207,3.226486,11.1970825,0,0,0,0,0,0,0,0,0,0,0,0,0,0,0,0,0,0,0,0,0
398,1.0736232,-0.44689912,0.2637114,-2.8978827,-0.27883378,-0.91057765,-7.1006036,5.824195,14.679449,0,0,0,0,0,0,0,0,0,0,0,0,0,0,0,0,0,0,0,0,0
399,1.0569649,-0.3616192,0.21809009,-2.08189,-2.0290632,0.69158006,-4.8069587,3.3749266,13.186665,0,0,0,0,0,0,0,0,0,0,0,0,0,0,0,0,0,0,0,0,0
400,1.0187556,-0.32773614,0.11207856,-0.25709224,-2.6884618,1.15497,-1.5089456,1.3709798,12.1044855,0,0,0,0,0,0,0,0,0,0,0,0,0,0,0,0,0,0,0,0,0
401,0.9899813,-0.35469916,0.059724323,1.2736927,-1.408014,0.9568309,-0.99658644,3.3342252,9.533113,0,0,0,0,0,0,0,0,0,0,0,0,0,0,0,0,0,0,0,0,0
402,0.9695625,-0.36945376,0.027933955,-0.07173624,-0.74009323,0.50196296,-1.3138182,2.8314428,8.409035,0,0,0,0,0,0,0,0,0,0,0,0,0,0,0,0,0,0,0,0,0
403,0.9552167,-0.35096493,-4.0542573E-4,-0.050433613,-1.0447615,0.6436458,0.516549,1.3003508,9.199121,0,0,0,0,0,0,0,0,0,0,0,0,0,0,0,0,0,0,0,0,0
404,0.93552107,-0.36416057,-0.051306017,0.3650195,-1.3632756,-0.16062883,1.1079168,2.8589761,6.5487404,0,0,0,0,0,0,0,0,0,0,0,0,0,0,0,0,0,0,0,0,0
405,0.9061629,-0.36432442,-0.06428744,-0.05149888,0.5531351,-0.17980358,3.4662056,2.6243443,7.9206176,0,0,0,0,0,0,0,0,0,0,0,0,0,0,0,0,0,0,0,0,0
406,0.8981033,-0.3607726,-0.029781964,-0.35829502,1.3052118,-0.50044817,2.260725,3.35697,7.3723454,0,0,0,0,0,0,0,0,0,0,0,0,0,0,0,0,0,0,0,0,0
407,0.9202362,-0.33405703,-0.012723067,-1.0400642,-0.40453762,-0.7933959,-1.2611457,2.739266,10.278907,0,0,0,0,0,0,0,0,0,0,0,0,0,0,0,0,0,0,0,0,0
408,0.9363624,-0.30775946,-0.019313546,-0.797184,-0.092415154,-0.92122763,1.5544355,2.285565,11.121665,0,0,0,0,0,0,0,0,0,0,0,0,0,0,0,0,0,0,0,0,0
409,0.9700753,-0.28925222,-0.005775512,-0.6661565,0.33262536,-1.0043182,-0.45190558,1.6558897,9.196728,0,0,0,0,0,0,0,0,0,0,0,0,0,0,0,0,0,0,0,0,0
410,1.0043864,-0.26301536,0.021427974,-1.0432601,0.4391518,-1.0842131,-1.347337,3.4419641,9.247005,0,0,0,0,0,0,0,0,0,0,0,0,0,0,0,0,0,0,0,0,0
411,1.0376023,-0.22057107,0.028171118,-1.1401991,-0.09454568,-0.57288617,0.29867667,0.99868137,10.697892,0,0,0,0,0,0,0,0,0,0,0,0,0,0,0,0,0,0,0,0,0
412,1.0514581,-0.19622478,0.009547646,-0.42434144,-0.7869676,-0.5739514,1.5628152,0.7305308,9.19553,0,0,0,0,0,0,0,0,0,0,0,0,0,0,0,0,0,0,0,0,0
413,1.0291214,-0.20255631,-0.009864764,0.6078998,-0.41625553,-0.431206,2.2583308,0.7628525,6.5188127,0,0,0,0,0,0,0,0,0,0,0,0,0,0,0,0,0,0,0,0,0
414,1.0464777,-0.20101011,-0.01993567,-0.56389105,-0.50041145,-1.0373415,0.46267948,1.2261306,6.6205664,0,0,0,0,0,0,0,0,0,0,0,0,0,0,0,0,0,0,0,0,0
415,1.0597963,-0.17644458,-0.02422046,-0.8472514,-0.20000686,-0.80724436,1.3904326,2.0940287,10.800842,0,0,0,0,0,0,0,0,0,0,0,0,0,0,0,0,0,0,0,0,0
416,1.0524992,-0.17260593,-0.031624716,0.2574278,-0.35979652,-0.27567738,1.584363,2.084452,8.652046,0,0,0,0,0,0,0,0,0,0,0,0,0,0,0,0,0,0,0,0,0
417,1.0650029,-0.17917295,-0.036223296,-0.338055,-0.03915193,-0.58779985,-0.64942724,2.0269911,8.197148,0,0,0,0,0,0,0,0,0,0,0,0,0,0,0,0,0,0,0,0,0
418,1.0788566,-0.16483387,-0.030161815,-0.43073303,-0.03915193,-0.42268386,-0.7200562,1.5960348,13.89056,0,0,0,0,0,0,0,0,0,0,0,0,0,0,0,0,0,0,0,0,0
419,1.0918789,-0.16387142,-0.031727806,0.47046497,-0.30868036,-0.2618127,-1.0301052,1.8043302,12.783241,0,0,0,0,0,0,0,0,0,0,0,0,0,0,0,0,0,0,0,0,0
420,1.0905573,-0.18022668,-0.0387625,0.06140344,-0.049821086,-0.15209046,-0.55605334,2.2831707,7.425018,0,0,0,0,0,0,0,0,0,0,0,0,0,0,0,0,0,0,0,0,0
421,1.0856631,-0.17230467,-0.02419639,-0.6406058,0.78215045,0.2175563,-0.6027403,2.784756,10.999561,0,0,0,0,0,0,0,0,0,0,0,0,0,0,0,0,0,0,0,0,0
422,1.0759488,-0.14016041,-0.014675468,-1.0613853,-0.3939015,0.17388044,-1.0097545,1.5349826,11.638813,0,0,0,0,0,0,0,0,0,0,0,0,0,0,0,0,0,0,0,0,0
423,1.0773839,-0.119080395,-0.017965,-0.87389874,-0.08710534,-0.24476847,-2.830545,3.831022,11.48319,0,0,0,0,0,0,0,0,0,0,0,0,0,0,0,0,0,0,0,0,0
424,1.073642,-0.118107066,-0.0087857125,0.8113496,0.5712281,0.5584409,-1.3365631,2.833837,11.130045,0,0,0,0,0,0,0,0,0,0,0,0,0,0,0,0,0,0,0,0,0
425,1.0608844,-0.14393395,0.0072121713,1.4600956,1.3936123,1.6205095,1.6310499,-0.786196,10.08737,0,0,0,0,0,0,0,0,0,0,0,0,0,0,0,0,0,0,0,0,0
426,1.0284065,-0.21837908,0.063611574,2.4593136,1.505465,0.7629717,0.046088383,-1.3536218,10.007165,0,0,0,0,0,0,0,0,0,0,0,0,0,0,0,0,0,0,0,0,0
427,1.0383407,-0.2990192,0.10447377,3.6311045,1.444745,-0.6431774,-0.6063316,2.1287446,8.637681,0,0,0,0,0,0,0,0,0,0,0,0,0,0,0,0,0,0,0,0,0
428,1.0539793,-0.38655648,0.1466276,3.4169865,1.4287659,-0.28098747,-0.350152,3.4252048,8.717887,0,0,0,0,0,0,0,0,0,0,0,0,0,0,0,0,0,0,0,0,0
429,1.0789471,-0.46859512,0.18132164,1.7903275,0.018355837,-0.24583374,-0.97982705,2.809895,9.948506,0,0,0,0,0,0,0,0,0,0,0,0,0,0,0,0,0,0,0,0,0
430,1.0981257,-0.490157,0.1707633,0.26806474,-1.5028417,-0.6772658,-1.2958617,4.0153756,9.336788,0,0,0,0,0,0,0,0,0,0,0,0,0,0,0,0,0,0,0,0,0
431,1.1343361,-0.488053,0.12089317,0.3863091,-1.8011158,-0.52919406,0.4866215,2.8242602,10.851121,0,0,0,0,0,0,0,0,0,0,0,0,0,0,0,0,0,0,0,0,0
432,1.1890427,-0.50220853,0.0751856,0.8837876,-2.0088425,-1.5795448,-0.9295488,2.7380688,11.596914,0,0,0,0,0,0,0,0,0,0,0,0,0,0,0,0,0,0,0,0,0
433,1.2434766,-0.533957,0.053692084,1.9383993,-2.0929983,-1.4538436,-3.7463272,4.3469725,9.727043,0,0,0,0,0,0,0,0,0,0,0,0,0,0,0,0,0,0,0,0,0
434,1.2864203,-0.6235629,0.031211006,3.4425528,-0.72732925,-0.38005707,-1.3628993,3.6191351,7.426215,0,0,0,0,0,0,0,0,0,0,0,0,0,0,0,0,0,0,0,0,0
435,1.3403413,-0.7061762,0.011227638,3.4990118,-0.706024,-0.6676785,1.7531542,1.837849,4.7494974,0,0,0,0,0,0,0,0,0,0,0,0,0,0,0,0,0,0,0,0,0
436,1.3945894,-0.78069717,0.03297824,2.4859507,-0.809349,-1.6935334,-1.8836381,4.214094,3.6649241,0,0,0,0,0,0,0,0,0,0,0,0,0,0,0,0,0,0,0,0,0
437,1.4631804,-0.82731116,0.06731455,0.8965761,-1.2290633,-1.3281478,-3.1238346,5.6996965,3.1250317,0,0,0,0,0,0,0,0,0,0,0,0,0,0,0,0,0,0,0,0,0
438,1.507513,-0.8407512,0.08001031,0.46940506,-1.0010966,-1.1257474,-1.8273745,6.018125,4.0025067,0,0,0,0,0,0,0,0,0,0,0,0,0,0,0,0,0,0,0,0,0
439,1.5775269,-0.84656966,0.10740997,0.17645733,-0.8498291,-1.2866024,-4.0360255,6.810606,6.0758853,0,0,0,0,0,0,0,0,0,0,0,0,0,0,0,0,0,0,0,0,0
440,1.6341611,-0.8456726,0.11245312,0.21587211,-1.61895,-0.64211744,-6.0866594,8.183681,6.67683,0,0,0,0,0,0,0,0,0,0,0,0,0,0,0,0,0,0,0,0,0
441,1.6422372,-0.85901386,0.08320477,0.4800577,-1.7893924,-0.17340109,-2.2188265,7.5420346,4.06715,0,0,0,0,0,0,0,0,0,0,0,0,0,0,0,0,0,0,0,0,0
442,1.6519943,-0.8671486,0.05468631,-0.015290273,-1.0287935,-0.29803702,-1.1569979,7.418733,5.373187,0,0,0,0,0,0,0,0,0,0,0,0,0,0,0,0,0,0,0,0,0
443,1.6739802,-0.8618808,0.045964852,-0.104772486,-1.4250718,-0.50682884,-3.0412347,7.606678,6.7103486,0,0,0,0,0,0,0,0,0,0,0,0,0,0,0,0,0,0,0,0,0
444,1.6877126,-0.86801946,0.01274428,0.2851143,-1.5411857,-0.3555613,-0.7380127,8.998906,5.0212393,0,0,0,0,0,0,0,0,0,0,0,0,0,0,0,0,0,0,0,0,0
445,1.6802465,-0.8889279,-0.0032781512,0.96901405,-0.42798436,-0.33319074,0.42197806,8.383596,4.395156,0,0,0,0,0,0,0,0,0,0,0,0,0,0,0,0,0,0,0,0,0
446,1.6987597,-0.93355244,0.027171927,1.2981808,0.34326708,-0.39923713,-1.6059108,8.302194,4.317344,0,0,0,0,0,0,0,0,0,0,0,0,0,0,0,0,0,0,0,0,0
447,1.7143314,-0.97617227,0.053292014,1.0627574,-0.124384,-0.42586875,-0.24361002,8.101081,3.1214404,0,0,0,0,0,0,0,0,0,0,0,0,0,0,0,0,0,0,0,0,0
448,1.7258502,-0.999025,0.069575965,0.6228031,-0.3310453,-0.7113596,0.02932897,8.2315645,2.8496985,0,0,0,0,0,0,0,0,0,0,0,0,0,0,0,0,0,0,0,0,0
449,1.7680829,-1.0095772,0.10699856,0.49284086,-0.20427884,-0.576071,-3.9833531,8.857649,3.7582982,0,0,0,0,0,0,0,0,0,0,0,0,0,0,0,0,0,0,0,0,0
450,1.779862,-1.0246532,0.1288107,0.8827276,0.39120397,0.644722,-5.7203465,10.497677,4.23235,0,0,0,0,0,0,0,0,0,0,0,0,0,0,0,0,0,0,0,0,0
451,1.7149367,-1.0631235,0.09898556,1.2214817,0.7139791,1.5928073,-4.6202106,9.194034,5.1062336,0,0,0,0,0,0,0,0,0,0,0,0,0,0,0,0,0,0,0,0,0
452,1.6328663,-1.0948391,0.044910647,1.2481134,0.39120397,2.1062648,-5.86759,10.676044,4.71957,0,0,0,0,0,0,0,0,0,0,0,0,0,0,0,0,0,0,0,0,0
453,1.4180585,-1.1235443,-0.13667205,0.98285186,-0.016803214,3.615755,-6.3045316,11.531972,4.4777555,0,0,0,0,0,0,0,0,0,0,0,0,0,0,0,0,0,0,0,0,0
454,1.08679,-1.0788882,-0.44658852,-0.04193254,-0.5483702,5.8315053,-7.187992,9.031228,3.4626143,0,0,0,0,0,0,0,0,0,0,0,0,0,0,0,0,0,0,0,0,0
455,0.86201364,-0.97609115,-0.6584595,-0.27842125,-0.68685454,6.1042128,-1.3748703,2.8972833,7.9062524,0,0,0,0,0,0,0,0,0,0,0,0,0,0,0,0,0,0,0,0,0
456,0.71398216,-0.88377607,-0.8138122,0.9967003,-1.0394571,5.0293612,1.5520413,4.598364,7.695563,0,0,0,0,0,0,0,0,0,0,0,0,0,0,0,0,0,0,0,0,0
457,0.5049426,-0.7690914,-1.0231245,3.4255033,1.1549877,5.5982122,10.386645,1.3649943,2.7431567,0,0,0,0,0,0,0,0,0,0,0,0,0,0,0,0,0,0,0,0,0
458,0.38067028,-0.68330413,-1.1071377,2.7671697,1.0804192,4.351853,10.201095,-0.5755062,4.1282024,0,0,0,0,0,0,0,0,0,0,0,0,0,0,0,0,0,0,0,0,0
459,0.29423213,-0.5886328,-1.1916445,1.9671562,-0.23837821,3.410159,8.920197,0.10803835,2.3110032,0,0,0,0,0,0,0,0,0,0,0,0,0,0,0,0,0,0,0,0,0
460,0.25233686,-0.5021248,-1.250543,1.7679517,0.4913279,2.7688699,11.051037,0.22176293,2.9825768,0,0,0,0,0,0,0,0,0,0,0,0,0,0,0,0,0,0,0,0,0
461,0.25702152,-0.45076397,-1.2727017,1.8361286,0.2644266,1.8058709,14.165893,-0.52043957,2.168548,0,0,0,0,0,0,0,0,0,0,0,0,0,0,0,0,0,0,0,0,0
462,0.17107677,-0.42640638,-1.3202255,0.7655379,-1.0277392,0.49985668,11.774085,1.6379333,0.14544775,0,0,0,0,0,0,0,0,0,0,0,0,0,0,0,0,0,0,0,0,0
463,0.15642509,-0.4198266,-1.347863,0.95302445,-0.29377195,-0.02957973,10.549451,1.7277158,2.7862523,0,0,0,0,0,0,0,0,0,0,0,0,0,0,0,0,0,0,0,0,0
464,0.07983752,-0.43376318,-1.3654597,2.6169674,0.7086419,-0.08923454,9.311649,2.8673558,1.4203602,0,0,0,0,0,0,0,0,0,0,0,0,0,0,0,0,0,0,0,0,0
465,-0.030304424,-0.44868907,-1.3990736,1.9873962,-0.2032245,-0.19363046,10.403405,2.9571383,-1.6298528,0,0,0,0,0,0,0,0,0,0,0,0,0,0,0,0,0,0,0,0,0
466,-0.08648042,-0.4571864,-1.4414164,0.69842625,-1.0298697,-0.24369788,11.2605295,3.7651815,-3.8863878,0,0,0,0,0,0,0,0,0,0,0,0,0,0,0,0,0,0,0,0,0
467,-0.09304041,-0.47233933,-1.4716022,-0.652329,-0.5931113,-0.68152153,8.374319,3.6969466,-1.5352819,0,0,0,0,0,0,0,0,0,0,0,0,0,0,0,0,0,0,0,0,0
468,-0.08690184,-0.4869261,-1.4736519,-0.46164674,-0.11587281,-0.70282686,8.473679,3.7927148,-0.6171055,0,0,0,0,0,0,0,0,0,0,0,0,0,0,0,0,0,0,0,0,0
469,-0.08010869,-0.51095444,-1.4708654,-0.32635814,-0.046630617,-0.8178754,8.350377,4.172196,-0.23044191,0,0,0,0,0,0,0,0,0,0,0,0,0,0,0,0,0,0,0,0,0
470,-0.085192166,-0.5324181,-1.4736807,-0.29972652,-0.0104116285,-1.0405157,8.520366,5.144242,-1.1378443,0,0,0,0,0,0,0,0,0,0,0,0,0,0,0,0,0,0,0,0,0
471,-0.06313796,-0.571595,-1.4701878,-1.0017358,-0.499368,-1.1044315,8.875904,4.360141,-1.1617863,0,0,0,0,0,0,0,0,0,0,0,0,0,0,0,0,0,0,0,0,0
472,-0.053125814,-0.596847,-1.4595354,-0.9410157,0.0396558,-1.4634256,10.484808,3.558083,-1.1845313,0,0,0,0,0,0,0,0,0,0,0,0,0,0,0,0,0,0,0,0,0
473,-0.035667192,-0.6358272,-1.4251875,-1.2020055,0.8567136,-2.1228244,8.938153,3.2300773,0.15023616,0,0,0,0,0,0,0,0,0,0,0,0,0,0,0,0,0,0,0,0,0
474,0.056901354,-0.700546,-1.358992,-1.7793788,0.016219983,-2.7790272,9.504382,3.736451,2.319383,0,0,0,0,0,0,0,0,0,0,0,0,0,0,0,0,0,0,0,0,0
475,0.18600419,-0.75722516,-1.3058659,-1.5535427,-0.3555573,-3.6205862,9.037513,2.1790228,3.177704,0,0,0,0,0,0,0,0,0,0,0,0,0,0,0,0,0,0,0,0,0
476,0.3063544,-0.87443537,-1.2261676,-1.0965443,0.17920543,-4.332183,3.8217444,3.616741,1.2036849,0,0,0,0,0,0,0,0,0,0,0,0,0,0,0,0,0,0,0,0,0
477,0.4159861,-0.9601735,-1.133085,-1.2957487,0.16429174,-4.1947637,3.696049,4.5397058,1.7794905,0,0,0,0,0,0,0,0,0,0,0,0,0,0,0,0,0,0,0,0,0
478,0.6588465,-1.0598242,-0.9367078,-1.6515471,-0.535587,-4.686916,1.9686323,5.716456,3.153762,0,0,0,0,0,0,0,0,0,0,0,0,0,0,0,0,0,0,0,0,0
479,1.0160768,-1.1286192,-0.6455138,-1.7974883,-0.9116253,-4.5654755,-1.632247,8.073547,4.8069587,0,0,0,0,0,0,0,0,0,0,0,0,0,0,0,0,0,0,0,0,0
480,1.2796983,-1.1496404,-0.41522148,-1.1157191,-0.65383136,-3.2658532,-4.097078,9.633369,3.0831332,0,0,0,0,0,0,0,0,0,0,0,0,0,0,0,0,0,0,0,0,0
481,1.5316242,-1.1302564,-0.199862,-1.8646,-0.7475746,-2.1515865,-4.5687356,11.244668,2.9550436,0,0,0,0,0,0,0,0,0,0,0,0,0,0,0,0,0,0,0,0,0
482,1.6410381,-1.0796293,-0.11708444,-1.8550125,-0.6133513,-0.9489029,-2.8963854,11.323676,8.806473,0,0,0,0,0,0,0,0,0,0,0,0,0,0,0,0,0,0,0,0,0
483,1.70246,-1.0441052,-0.088756494,-0.39133927,-0.6975072,-0.6772605,-0.02813187,8.826524,6.84203,0,0,0,0,0,0,0,0,0,0,0,0,0,0,0,0,0,0,0,0,0
484,1.7488954,-1.0435035,-0.05333046,-0.18148218,-0.44290897,-0.953164,-2.6449943,10.09545,4.526837,0,0,0,0,0,0,0,0,0,0,0,0,0,0,0,0,0,0,0,0,0
485,1.7915202,-1.0349143,-0.018326716,-0.42542773,-0.19470237,0.026879285,-3.1956608,10.990882,4.4597993,0,0,0,0,0,0,0,0,0,0,0,0,0,0,0,0,0,0,0,0,0
486,1.7748443,-1.0237193,-0.02762388,-0.2762987,0.09823709,0.35072792,-0.9403227,9.264663,5.036802,0,0,0,0,0,0,0,0,0,0,0,0,0,0,0,0,0,0,0,0,0
487,1.7584344,-1.0209544,-0.03645514,0.06245539,0.1696098,0.22822252,0.25318682,7.877223,5.20679,0,0,0,0,0,0,0,0,0,0,0,0,0,0,0,0,0,0,0,0,0
488,1.7468697,-1.0306679,-0.032822575,0.2691167,0.1578919,-0.11585789,0.061650693,8.157345,3.520075,0,0,0,0,0,0,0,0,0,0,0,0,0,0,0,0,0,0,0,0,0
489,1.744689,-1.0351881,-0.020335319,-0.1505975,0.2090246,0.0045169876,-0.57400984,8.800188,3.5392287,0,0,0,0,0,0,0,0,0,0,0,0,0,0,0,0,0,0,0,0,0
490,1.7316653,-1.0245308,-0.022123912,-0.44461048,0.12699923,0.2921384,-0.18734628,8.600272,4.88477,0,0,0,0,0,0,0,0,0,0,0,0,0,0,0,0,0,0,0,0,0
491,1.7098222,-1.0128125,-0.03843327,-0.17616384,0.17174034,0.3933385,0.5979519,7.901165,5.617396,0,0,0,0,0,0,0,0,0,0,0,0,0,0,0,0,0,0,0,0,0
492,1.6925247,-1.013675,-0.047531165,0.13063231,0.23672146,0.19946037,0.9187749,7.698855,4.778228,0,0,0,0,0,0,0,0,0,0,0,0,0,0,0,0,0,0,0,0,0
493,1.6864554,-1.0156431,-0.04416023,0.03369325,0.19730668,-0.0050703925,0.45070848,7.9957356,5.1780596,0,0,0,0,0,0,0,0,0,0,0,0,0,0,0,0,0,0,0,0,0
494,1.6855658,-1.0155296,-0.040312465,-0.034483675,-0.024268322,0.014104367,-0.15382746,8.353669,5.0703206,0,0,0,0,0,0,0,0,0,0,0,0,0,0,0,0,0,0,0,0,0
495,1.6776712,-1.0135938,-0.047006223,-0.028092088,-0.02852938,0.09612973,0.44352585,8.196849,5.191228,0,0,0,0,0,0,0,0,0,0,0,0,0,0,0,0,0,0,0,0,0
496,1.6733876,-1.0146863,-0.05048712,0.1551334,0.01940752,-0.043419912,0.9235633,7.868843,5.254674,0,0,0,0,0,0,0,0,0,0,0,0,0,0,0,0,0,0,0,0,0
497,1.6773472,-1.0223491,-0.04340899,0.21265768,-0.07220522,-0.30760548,0.5201403,8.227973,4.671686,0,0,0,0,0,0,0,0,0,0,0,0,0,0,0,0,0,0,0,0,0
498,1.6909229,-1.0291045,-0.02819864,0.08802173,-0.119076855,-0.253277,-0.3800795,8.681675,4.481347,0,0,0,0,0,0,0,0,0,0,0,0,0,0,0,0,0,0,0,0,0
499,1.6924198,-1.0302067,-0.025337594,0.013453225,-0.14570847,-0.10094419,-5.985504E-4,8.24593,4.71119,0,0,0,0,0,0,0,0,0,0,0,0,0,0,0,0,0,0,0,0,0
500,1.6973504,-1.031517,-0.019967046,0.050737478,-0.07220522,-0.19042641,-0.17896658,8.3824,4.785411,0,0,0,0,0,0,0,0,0,0,0,0,0,0,0,0,0,0,0,0,0
501,1.7034128,-1.0361773,-0.007731136,0.2712472,0.17813192,-0.18723062,-0.56203884,8.802582,4.872799,0,0,0,0,0,0,0,0,0,0,0,0,0,0,0,0,0,0,0,0,0
502,1.7079325,-1.049351,0.009948467,0.40547052,0.23032987,-0.060464144,-0.75836337,8.6709,4.585495,0,0,0,0,0,0,0,0,0,0,0,0,0,0,0,0,0,0,0,0,0
503,1.7052011,-1.0595064,0.01910365,0.31918943,0.12167823,0.054578822,-0.9415198,8.947431,4.3281183,0,0,0,0,0,0,0,0,0,0,0,0,0,0,0,0,0,0,0,0,0
504,1.6872914,-1.069741,0.012271015,0.23290302,0.029000226,0.21223795,0.022146367,8.793005,4.222773,0,0,0,0,0,0,0,0,0,0,0,0,0,0,0,0,0,0,0,0,0
505,1.6714499,-1.0762472,-6.908225E-5,0.21053247,-0.1020273,0.19732426,-0.38726214,8.724771,5.107431,0,0,0,0,0,0,0,0,0,0,0,0,0,0,0,0,0,0,0,0,0
506,1.6559867,-1.0823796,-0.0184362,0.26805675,-0.5707436,0.381615,-0.9391256,9.152135,4.7866077,0,0,0,0,0,0,0,0,0,0,0,0,0,0,0,0,0,0,0,0,0
507,1.6083294,-1.0921848,-0.07282132,0.25314304,-0.5888531,0.53927416,0.3633201,8.775048,3.5703533,0,0,0,0,0,0,0,0,0,0,0,0,0,0,0,0,0,0,0,0,0
508,1.5763956,-1.0970415,-0.10723729,0.33516842,-0.24051167,0.5286215,0.26276365,8.974964,4.7626657,0,0,0,0,0,0,0,0,0,0,0,0,0,0,0,0,0,0,0,0,0
509,1.531341,-1.1099838,-0.15335162,0.6089414,-0.24157694,0.5328826,0.41359833,8.5260515,4.6285906,0,0,0,0,0,0,0,0,0,0,0,0,0,0,0,0,0,0,0,0,0
510,1.4934748,-1.1258116,-0.18752399,0.7623395,-0.20642321,0.56590575,-0.16819267,9.231144,3.9366663,0,0,0,0,0,0,0,0,0,0,0,0,0,0,0,0,0,0,0,0,0
511,1.4186342,-1.1494604,-0.2533649,0.8187985,-0.1286589,0.7470007,0.6877344,9.119814,2.9909565,0,0,0,0,0,0,0,0,0,0,0,0,0,0,0,0,0,0,0,0,0
512,1.336887,-1.1679242,-0.32394046,0.73251206,-0.01574088,0.7427396,0.6266823,9.140164,3.2303767,0,0,0,0,0,0,0,0,0,0,0,0,0,0,0,0,0,0,0,0,0
513,1.2774483,-1.1790823,-0.37405318,0.7186636,0.031130755,0.80026394,-0.09756372,9.695619,3.3680432,0,0,0,0,0,0,0,0,0,0,0,0,0,0,0,0,0,0,0,0,0
514,1.1754531,-1.1886046,-0.46295607,0.8678006,0.023673903,1.3478098,-1.3521254,10.430639,3.851672,0,0,0,0,0,0,0,0,0,0,0,0,0,0,0,0,0,0,0,0,0
515,1.0503882,-1.1867106,-0.5754291,0.87845325,-0.08924413,2.3363752,-0.74399817,10.160094,2.830545,0,0,0,0,0,0,0,0,0,0,0,0,0,0,0,0,0,0,0,0,0
516,0.8455086,-1.1534965,-0.75544024,1.022264,0.36988485,3.0074918,-2.8640637,10.362404,3.2998085,0,0,0,0,0,0,0,0,0,0,0,0,0,0,0,0,0,0,0,0,0
517,0.58932155,-1.0693512,-0.9504841,1.6848584,1.2444669,5.3457475,-5.6976013,9.94701,5.0140567,0,0,0,0,0,0,0,0,0,0,0,0,0,0,0,0,0,0,0,0,0
518,0.38672483,-0.9498685,-1.1057742,1.6933806,0.85138434,6.171327,3.0376434,3.5509005,3.8325183,0,0,0,0,0,0,0,0,0,0,0,0,0,0,0,0,0,0,0,0,0
519,0.1977883,-0.794348,-1.2359517,2.1301231,0.7970396,5.323393,5.9346275,3.8358104,2.60549,0,0,0,0,0,0,0,0,0,0,0,0,0,0,0,0,0,0,0,0,0
520,0.14553699,-0.68604034,-1.2923418,2.6116228,2.2181025,4.3699813,12.522273,2.0892403,0.24121583,0,0,0,0,0,0,0,0,0,0,0,0,0,0,0,0,0,0,0,0,0
521,0.08848576,-0.584057,-1.290636,1.710409,1.9358073,2.8349352,12.778453,1.1650784,2.9311013,0,0,0,0,0,0,0,0,0,0,0,0,0,0,0,0,0,0,0,0,0
522,0.11856248,-0.5315502,-1.2957771,0.7324963,0.18983892,1.5491611,11.619659,1.0525509,2.8461072,0,0,0,0,0,0,0,0,0,0,0,0,0,0,0,0,0,0,0,0,0
523,0.07310193,-0.49664286,-1.3096809,0.9732461,0.33897594,0.92598134,9.321226,2.0018518,2.4893713,0,0,0,0,0,0,0,0,0,0,0,0,0,0,0,0,0,0,0,0,0
524,0.0021644644,-0.47333887,-1.3220042,0.9956166,0.123792514,0.6191852,11.353903,1.4272435,2.6473885,0,0,0,0,0,0,0,0,0,0,0,0,0,0,0,0,0,0,0,0,0
525,-0.039729342,-0.4705629,-1.3411955,0.8805681,-0.393926,-0.1531315,10.105327,2.479495,1.6609775,0,0,0,0,0,0,0,0,0,0,0,0,0,0,0,0,0,0,0,0,0
526,-0.07882878,-0.48517656,-1.3711703,0.7303658,-0.44292817,-0.36724964,8.620922,3.7663786,0.5859809,0,0,0,0,0,0,0,0,0,0,0,0,0,0,0,0,0,0,0,0,0
527,-0.10836513,-0.49574015,-1.3915136,0.49494237,-0.265029,-0.3810981,9.297284,4.3373957,-0.15143326,0,0,0,0,0,0,0,0,0,0,0,0,0,0,0,0,0,0,0,0,0
528,-0.1267255,-0.51126385,-1.4069873,-0.039820384,-0.40990496,-0.55580145,9.552266,4.449923,0.026934769,0,0,0,0,0,0,0,0,0,0,0,0,0,0,0,0,0,0,0,0,0
529,-0.123626605,-0.5271244,-1.420831,-0.60654104,-0.7955307,-0.8242481,8.120534,4.7503953,-0.350152,0,0,0,0,0,0,0,0,0,0,0,0,0,0,0,0,0,0,0,0,0
530,-0.102713205,-0.5528871,-1.4269729,-0.46379563,-0.24478897,-0.45673186,5.880758,6.0899515,0.12150574,0,0,0,0,0,0,0,0,0,0,0,0,0,0,0,0,0,0,0,0,0
531,-0.09232238,-0.55224794,-1.4278296,-0.64276004,-0.32255328,0.058856126,8.219893,4.598364,-0.16819267,0,0,0,0,0,0,0,0,0,0,0,0,0,0,0,0,0,0,0,0,0
532,-0.08101728,-0.5484197,-1.4252994,-0.876053,-0.27568164,-0.25433162,9.463681,4.1350856,0.22804771,0,0,0,0,0,0,0,0,0,0,0,0,0,0,0,0,0,0,0,0,0
533,-0.048079077,-0.5590281,-1.4166687,-0.9144025,-0.34066278,-0.5302351,7.841609,4.9874215,0.85413146,0,0,0,0,0,0,0,0,0,0,0,0,0,0,0,0,0,0,0,0,0
534,-0.032765012,-0.5682021,-1.4130709,-0.49575356,-0.18087311,-0.42690444,7.925406,5.098752,0.5129577,0,0,0,0,0,0,0,0,0,0,0,0,0,0,0,0,0,0,0,0,0
535,-0.035571724,-0.57845145,-1.4092855,-0.2251764,0.19516523,-0.50786453,9.505579,4.636671,-0.84455466,0,0,0,0,0,0,0,0,0,0,0,0,0,0,0,0,0,0,0,0,0
536,-0.029842252,-0.5950286,-1.3931575,-0.68324274,0.11207168,-0.8402244,9.891046,4.058471,-0.27114335,0,0,0,0,0,0,0,0,0,0,0,0,0,0,0,0,0,0,0,0,0
537,-0.0023678755,-0.6166357,-1.3783993,-1.2702035,-0.33960044,-1.4602083,9.482835,4.6546273,0.4950012,0,0,0,0,0,0,0,0,0,0,0,0,0,0,0,0,0,0,0,0,0
538,0.057212636,-0.66396326,-1.3519837,-1.3671426,-0.4035163,-2.0333207,8.696339,4.902427,0.75118077,0,0,0,0,0,0,0,0,0,0,0,0,0,0,0,0,0,0,0,0,0
539,0.106068686,-0.711542,-1.3213012,-1.2989656,0.027915787,-2.481797,7.3328414,5.254375,0.6805518,0,0,0,0,0,0,0,0,0,0,0,0,0,0,0,0,0,0,0,0,0
540,0.18813416,-0.7815712,-1.250896,-1.3607509,0.4849142,-2.8461173,7.0742674,4.921581,1.216853,0,0,0,0,0,0,0,0,0,0,0,0,0,0,0,0,0,0,0,0,0
541,0.28755972,-0.8393843,-1.1697565,-1.5801954,0.55309117,-3.4309475,5.9322333,4.9874215,2.8113914,0,0,0,0,0,0,0,0,0,0,0,0,0,0,0,0,0,0,0,0,0
542,0.47236168,-0.9203015,-1.023522,-1.5471722,0.31127614,-3.9401438,4.311359,4.506187,4.2718544,0,0,0,0,0,0,0,0,0,0,0,0,0,0,0,0,0,0,0,0,0
543,0.71292204,-0.9996475,-0.8406786,-1.276595,-0.059435897,-4.4706454,3.6373909,3.7053263,4.3903675,0,0,0,0,0,0,0,0,0,0,0,0,0,0,0,0,0,0,0,0,0
544,0.9519733,-1.0513195,-0.6542292,-1.4544942,-0.3172299,-4.9841027,1.7567455,4.4990044,4.5926776,0,0,0,0,0,0,0,0,0,0,0,0,0,0,0,0,0,0,0,0,0
545,1.3161204,-1.0882779,-0.34069073,-1.1381106,-0.30018565,-4.662393,-3.567959,8.782231,6.880337,0,0,0,0,0,0,0,0,0,0,0,0,0,0,0,0,0,0,0,0,0
546,1.5299255,-1.0904604,-0.15670754,-0.4936257,-0.60272074,-2.707633,-4.4981065,12.304102,6.652888,0,0,0,0,0,0,0,0,0,0,0,0,0,0,0,0,0,0,0,0,0
547,1.6523112,-1.0872872,-0.062362403,-0.15913266,-0.527087,-1.0085362,-2.1493945,10.915464,5.3863554,0,0,0,0,0,0,0,0,0,0,0,0,0,0,0,0,0,0,0,0,0
548,1.6855005,-1.08683,-0.034998123,-0.04088831,-0.1851371,-0.37150803,-1.5939398,10.515634,4.9984946,0,0,0,0,0,0,0,0,0,0,0,0,0,0,0,0,0,0,0,0,0
549,1.6949668,-1.0837436,-0.025922315,-0.15700214,-0.11802544,0.09933884,-1.2635399,9.952995,5.3300915,0,0,0,0,0,0,0,0,0,0,0,0,0,0,0,0,0,0,0,0,0
550,1.682867,-1.075871,-0.04553857,-0.18576427,-0.44825742,0.1696463,-0.31184477,8.2950115,5.097854,0,0,0,0,0,0,0,0,0,0,0,0,0,0,0,0,0,0,0,0,0
551,1.6822151,-1.0722535,-0.05511602,-0.094151534,-0.51536906,-0.20106573,-0.13826515,8.156147,4.4801497,0,0,0,0,0,0,0,0,0,0,0,0,0,0,0,0,0,0,0,0,0
552,1.700323,-1.075143,-0.043379676,0.13061926,-0.21496451,-0.31611428,-0.789488,9.037213,4.055179,0,0,0,0,0,0,0,0,0,0,0,0,0,0,0,0,0,0,0,0,0
553,1.7071332,-1.0830612,-0.02962675,0.2744273,0.030043652,-0.14460406,-0.75836337,9.3317,3.7882257,0,0,0,0,0,0,0,0,0,0,0,0,0,0,0,0,0,0,0,0,0
554,1.697649,-1.0953213,-0.0244717,0.21051143,0.035369974,0.0024024376,-0.074818805,8.637382,2.7790697,0,0,0,0,0,0,0,0,0,0,0,0,0,0,0,0,0,0,0,0,0
555,1.684856,-1.097624,-0.02544837,-0.08563208,0.030043652,0.0045329663,0.27712885,8.297405,3.2603042,0,0,0,0,0,0,0,0,0,0,0,0,0,0,0,0,0,0,0,0,0
556,1.6800325,-1.0950772,-0.022564799,-0.1239816,0.077980556,-0.061513428,0.1921347,8.105869,3.9414546,0,0,0,0,0,0,0,0,0,0,0,0,0,0,0,0,0,0,0,0,0
557,1.6822202,-1.0919318,-0.014075925,-0.12611213,-0.031741682,-0.09027557,-0.19931729,8.612243,4.173692,0,0,0,0,0,0,0,0,0,0,0,0,0,0,0,0,0,0,0,0,0
558,1.6773229,-1.0884036,-0.016095273,-0.22092067,-0.2288156,-0.04979552,0.16579847,8.739136,3.9151182,0,0,0,0,0,0,0,0,0,0,0,0,0,0,0,0,0,0,0,0,0
559,1.6750702,-1.0784178,-0.020799493,-0.4233209,-0.22455454,-0.08601451,0.30825347,8.175301,3.899556,0,0,0,0,0,0,0,0,0,0,0,0,0,0,0,0,0,0,0,0,0
560,1.6810552,-1.0650225,-0.021316743,-0.49362835,-0.20431451,-0.18188831,0.54527944,7.9789762,4.845266,0,0,0,0,0,0,0,0,0,0,0,0,0,0,0,0,0,0,0,0,0
561,1.6975429,-1.0499707,-0.01495261,-0.4265167,-0.32895046,-0.3406127,0.516549,8.049605,4.8536453,0,0,0,0,0,0,0,0,0,0,0,0,0,0,0,0,0,0,0,0,0
562,1.7256434,-1.0333828,-0.005784312,-0.46912727,-0.45571694,-0.45566127,0.12749124,8.034043,5.2486887,0,0,0,0,0,0,0,0,0,0,0,0,0,0,0,0,0,0,0,0,0
563,1.7485776,-1.0253059,0.0072927806,-0.17831008,-0.22135875,-0.45353073,-0.44472298,8.388385,5.2558713,0,0,0,0,0,0,0,0,0,0,0,0,0,0,0,0,0,0,0,0,0
564,1.7712046,-1.0244355,0.029036194,0.06137441,0.092894256,-0.325699,-0.5907693,8.408735,5.015254,0,0,0,0,0,0,0,0,0,0,0,0,0,0,0,0,0,0,0,0,0
565,1.7828951,-1.026601,0.047362693,0.09546287,0.18663752,-0.24899997,-0.85891986,8.617031,5.121796,0,0,0,0,0,0,0,0,0,0,0,0,0,0,0,0,0,0,0,0,0
566,1.7923824,-1.0267751,0.06317586,-0.07071838,-0.07861332,0.009859289,-2.3253684,9.450213,5.245097,0,0,0,0,0,0,0,0,0,0,0,0,0,0,0,0,0,0,0,0,0
567,1.781311,-1.0217426,0.051156584,0.06137441,-0.258643,0.79602444,-4.1066546,10.862792,8.252214,0,0,0,0,0,0,0,0,0,0,0,0,0,0,0,0,0,0,0,0,0
568,1.706285,-1.0410569,-0.020527175,1.0925504,-0.21922822,1.4000294,-1.3772645,8.643368,6.341642,0,0,0,0,0,0,0,0,0,0,0,0,0,0,0,0,0,0,0,0,0
569,1.6212302,-1.0767365,-0.089723155,1.0914904,-0.032801356,1.1922975,-3.116652,9.913491,4.851251,0,0,0,0,0,0,0,0,0,0,0,0,0,0,0,0,0,0,0,0,0
570,1.521605,-1.0885286,-0.17642938,1.0360967,-0.74546325,3.5220308,-12.404958,16.182709,6.7163343,0,0,0,0,0,0,0,0,0,0,0,0,0,0,0,0,0,0,0,0,0
571,1.134421,-1.0442944,-0.54504627,1.1117305,-0.49725664,6.7540426,-0.66618663,4.873697,6.177639,0,0,0,0,0,0,0,0,0,0,0,0,0,0,0,0,0,0,0,0,0
572,0.8899323,-0.9642336,-0.77238023,1.5538152,-0.66876423,5.397961,-0.13587095,3.4671032,5.549161,0,0,0,0,0,0,0,0,0,0,0,0,0,0,0,0,0,0,0,0,0
573,0.6328002,-0.8543152,-0.9770476,2.7969787,0.28997377,6.6666913,-5.397129,5.1550155,5.54557,0,0,0,0,0,0,0,0,0,0,0,0,0,0,0,0,0,0,0,0,0
574,0.44028386,-0.71021074,-1.1243148,3.8483949,0.67986053,7.4603133,7.474099,-3.5503018,4.8656163,0,0,0,0,0,0,0,0,0,0,0,0,0,0,0,0,0,0,0,0,0
575,0.28278568,-0.5501422,-1.2743397,3.1858003,-0.5057788,4.7076697,15.146318,-2.635717,-2.5396495,0,0,0,0,0,0,0,0,0,0,0,0,0,0,0,0,0,0,0,0,0
576,0.24114977,-0.45537767,-1.3374656,2.2952392,1.1656212,2.8136299,13.529036,0.70060325,-4.920683,0,0,0,0,0,0,0,0,0,0,0,0,0,0,0,0,0,0,0,0,0
577,0.26940328,-0.39673364,-1.3118747,0.72184366,1.8878704,2.1105554,12.753314,-0.9454104,0.3333926,0,0,0,0,0,0,0,0,0,0,0,0,0,0,0,0,0,0,0,0,0
578,0.3389832,-0.33835226,-1.2941817,-0.5181241,-0.043454,0.9994846,12.9652,-1.0076597,1.8968062,0,0,0,0,0,0,0,0,0,0,0,0,0,0,0,0,0,0,0,0,0
579,0.32560444,-0.32174453,-1.2923058,0.016638631,0.528593,0.17177415,8.903438,1.1770494,1.7782934,0,0,0,0,0,0,0,0,0,0,0,0,0,0,0,0,0,0,0,0,0
580,0.30878744,-0.3125733,-1.2716583,0.15192722,0.6095531,0.3709786,9.011177,1.4954783,2.6509798,0,0,0,0,0,0,0,0,0,0,0,0,0,0,0,0,0,0,0,0,0
581,0.2890055,-0.30224887,-1.2649196,-0.063256204,0.1301841,-0.035952408,11.055825,1.1878233,2.4450784,0,0,0,0,0,0,0,0,0,0,0,0,0,0,0,0,0,0,0,0,0
582,0.28227982,-0.3090932,-1.2640333,-0.095214136,0.015135543,-0.4077297,9.276933,2.784756,2.0069396,0,0,0,0,0,0,0,0,0,0,0,0,0,0,0,0,0,0,0,0,0
583,0.2842381,-0.32193473,-1.2618756,-0.22837219,0.0130050145,-0.37896755,8.314464,3.6574423,2.1625626,0,0,0,0,0,0,0,0,0,0,0,0,0,0,0,0,0,0,0,0,0
584,0.28472903,-0.32907596,-1.2578831,-0.18789214,0.12059672,-0.21172103,8.321647,3.962703,2.3948002,0,0,0,0,0,0,0,0,0,0,0,0,0,0,0,0,0,0,0,0,0
585,0.28833732,-0.333726,-1.2519917,-0.2038711,0.0705293,-0.17443678,8.883087,3.856161,2.8652608,0,0,0,0,0,0,0,0,0,0,0,0,0,0,0,0,0,0,0,0,0
586,0.28802583,-0.33792186,-1.2501254,-0.109065235,-0.099915944,-0.23621945,9.154829,3.747225,3.0053217,0,0,0,0,0,0,0,0,0,0,0,0,0,0,0,0,0,0,0,0,0
587,0.28801712,-0.34680176,-1.255656,-0.094151534,-0.28633723,-0.29907006,8.599374,3.805883,2.593519,0,0,0,0,0,0,0,0,0,0,0,0,0,0,0,0,0,0,0,0,0
588,0.28046975,-0.35477486,-1.262879,0.013440175,-0.13506967,-0.24580684,9.036316,3.2695818,2.0655975,0,0,0,0,0,0,0,0,0,0,0,0,0,0,0,0,0,0,0,0,0
589,0.26777005,-0.35940734,-1.2678955,-0.1910906,-0.18939815,-0.48229554,10.794857,2.3621793,1.7806876,0,0,0,0,0,0,0,0,0,0,0,0,0,0,0,0,0,0,0,0,0
590,0.26586255,-0.37673113,-1.2709205,-0.40733927,-0.27888036,-1.0223846,11.385028,1.5625159,2.011728,0,0,0,0,0,0,0,0,0,0,0,0,0,0,0,0,0,0,0,0,0
591,0.27565426,-0.40103546,-1.2749752,-0.7503544,-0.655984,-1.7094802,10.366295,1.7360955,2.4127567,0,0,0,0,0,0,0,0,0,0,0,0,0,0,0,0,0,0,0,0,0
592,0.30048242,-0.45147887,-1.2804205,-0.75355023,-0.70711666,-2.1611524,9.498397,1.920449,1.9698294,0,0,0,0,0,0,0,0,0,0,0,0,0,0,0,0,0,0,0,0,0
593,0.30546823,-0.49860898,-1.2792684,-0.6534154,-0.16276655,-2.7545047,10.588956,1.8821418,0.7368156,0,0,0,0,0,0,0,0,0,0,0,0,0,0,0,0,0,0,0,0,0
594,0.45154178,-0.5883865,-1.2411139,-0.72265756,0.56587434,-3.6919372,9.9712515,2.1874025,1.0600328,0,0,0,0,0,0,0,0,0,0,0,0,0,0,0,0,0,0,0,0,0
595,0.62404084,-0.70269966,-1.1652054,-1.2148097,0.32086352,-4.7646585,7.924209,1.8941128,1.6980876,0,0,0,0,0,0,0,0,0,0,0,0,0,0,0,0,0,0,0,0,0
596,0.79633975,-0.7989285,-1.07519,-1.6963092,0.091831654,-5.7937036,4.6764746,1.7157447,1.9219455,0,0,0,0,0,0,0,0,0,0,0,0,0,0,0,0,0,0,0,0,0
597,1.0779186,-0.9283769,-0.8563859,-1.9178842,0.25375184,-6.489321,0.95827925,1.8653824,3.353678,0,0,0,0,0,0,0,0,0,0,0,0,0,0,0,0,0,0,0,0,0
598,1.3673402,-0.99924195,-0.5995242,-1.5961744,0.28997084,-6.450972,-5.3408656,6.0073514,6.7534447,0,0,0,0,0,0,0,0,0,0,0,0,0,0,0,0,0,0,0,0,0
599,1.7209682,-1.0373156,-0.29388618,-0.998561,-1.1374835,-3.731352,-10.108918,15.318401,6.8480153,0,0,0,0,0,0,0,0,0,0,0,0,0,0,0,0,0,0,0,0,0
600,1.8404819,-1.0196091,-0.22553925,-0.9708642,-1.2450752,-0.6942832,-2.582745,10.959758,5.3648076,0,0,0,0,0,0,0,0,0,0,0,0,0,0,0,0,0,0,0,0,0
601,1.8712902,-1.005607,-0.2058934,-0.4723204,-0.060501162,-0.7347632,-0.19931729,8.585907,5.9023056,0,0,0,0,0,0,0,0,0,0,0,0,0,0,0,0,0,0,0,0,0
602,1.9356358,-1.0043055,-0.13330232,0.035810728,0.4433689,-1.0777783,-2.0991163,9.062353,6.9461775,0,0,0,0,0,0,0,0,0,0,0,0,0,0,0,0,0,0,0,0,0
603,1.9797947,-1.0120642,-0.07868784,0.29253146,-0.061574683,-0.6846878,-4.0503907,10.842442,5.9489927,0,0,0,0,0,0,0,0,0,0,0,0,0,0,0,0,0,0,0,0,0
604,1.9807476,-1.0213442,-0.07365278,0.093327016,-0.3843498,0.29642075,-2.0787656,9.773431,4.103063,0,0,0,0,0,0,0,0,0,0,0,0,0,0,0,0,0,0,0,0,0
605,1.946154,-1.0206147,-0.1008582,-0.034504715,-0.17768851,0.4530146,0.3716998,7.874829,4.293402,0,0,0,0,0,0,0,0,0,0,0,0,0,0,0,0,0,0,0,0,0
606,1.9184166,-1.0229806,-0.115436256,0.19026609,0.14508662,0.08230259,0.7044938,7.9430633,4.457405,0,0,0,0,0,0,0,0,0,0,0,0,0,0,0,0,0,0,0,0,0
607,1.9051056,-1.0334365,-0.11110871,0.27229145,0.11632448,-0.06896495,0.57999533,8.293814,4.016872,0,0,0,0,0,0,0,0,0,0,0,0,0,0,0,0,0,0,0,0,0
608,1.8922683,-1.0397863,-0.10916987,0.07734805,-0.011507252,-0.06576916,0.6206968,8.256703,3.8217444,0,0,0,0,0,0,0,0,0,0,0,0,0,0,0,0,0,0,0,0,0
609,1.8858522,-1.0400163,-0.10773424,-0.07605003,-0.08927155,-0.12968503,0.83856916,8.030452,4.2000284,0,0,0,0,0,0,0,0,0,0,0,0,0,0,0,0,0,0,0,0,0
610,1.8856452,-1.0399468,-0.10109502,-0.017460482,-0.017898839,-0.28734416,0.74998367,7.9777794,4.349666,0,0,0,0,0,0,0,0,0,0,0,0,0,0,0,0,0,0,0,0,0
611,1.8999374,-1.0416907,-0.080306366,6.4901233E-4,0.0034064492,-0.4055885,0.3441665,8.2555065,4.431069,0,0,0,0,0,0,0,0,0,0,0,0,0,0,0,0,0,0,0,0,0
612,1.9134486,-1.0427431,-0.059928887,-0.04835315,-0.012572517,-0.39919692,-0.26755205,8.648156,4.5160627,0,0,0,0,0,0,0,0,0,0,0,0,0,0,0,0,0,0,0,0,0
613,1.9301614,-1.0419755,-0.038344316,-0.056875266,-0.022159897,-0.3129105,-0.26635495,8.387188,4.659715,0,0,0,0,0,0,0,0,0,0,0,0,0,0,0,0,0,0,0,0,0
614,1.9468573,-1.0401603,-0.019660747,-0.036635242,-0.047726244,-0.35658634,-0.13467385,8.25431,4.969764,0,0,0,0,0,0,0,0,0,0,0,0,0,0,0,0,0,0,0,0,0
615,1.9628838,-1.0428762,0.002034447,0.15511236,-0.04985677,-0.39706638,-1.1845313,9.079112,4.7578773,0,0,0,0,0,0,0,0,0,0,0,0,0,0,0,0,0,0,0,0,0
616,1.9727757,-1.0501683,0.019233521,0.15298183,-0.0519873,-0.13394608,-1.1426327,8.885181,4.1880574,0,0,0,0,0,0,0,0,0,0,0,0,0,0,0,0,0,0,0,0,0
617,1.9694092,-1.0531187,0.024277123,0.02408483,-0.04666098,-0.02741964,-0.86251116,8.649353,4.264672,0,0,0,0,0,0,0,0,0,0,0,0,0,0,0,0,0,0,0,0,0
618,1.9635625,-1.0536679,0.025404926,-0.0046773097,-0.08181471,0.008799351,-0.777517,8.612243,4.437054,0,0,0,0,0,0,0,0,0,0,0,0,0,0,0,0,0,0,0,0,0
619,1.95268,-1.0548452,0.022115242,-0.0099929795,-0.08180352,0.08442247,-0.6254852,8.632593,4.18686,0,0,0,0,0,0,0,0,0,0,0,0,0,0,0,0,0,0,0,0,0
620,1.9388705,-1.0550852,0.015881835,-0.012123508,-0.01895292,0.11318461,-0.0724246,8.207623,4.335301,0,0,0,0,0,0,0,0,0,0,0,0,0,0,0,0,0,0,0,0,0
621,1.928018,-1.0554621,0.012589036,0.0070512514,0.017266072,-7.98682E-4,0.078410104,8.216002,4.421492,0,0,0,0,0,0,0,0,0,0,0,0,0,0,0,0,0,0,0,0,0
622,1.923638,-1.0565704,0.016330656,0.01876916,0.017266072,-0.06577981,-0.207697,8.406342,4.4179006,0,0,0,0,0,0,0,0,0,0,0,0,0,0,0,0,0,0,0,0,0
623,1.9203074,-1.056851,0.01965369,-0.02916774,-0.051976115,-0.023169234,-0.3286042,8.494926,4.4597993,0,0,0,0,0,0,0,0,0,0,0,0,0,0,0,0,0,0,0,0,0
624,1.9138272,-1.0559921,0.018196238,-0.076039374,-0.07434667,-0.0050597396,-0.19572599,8.324939,4.410718,0,0,0,0,0,0,0,0,0,0,0,0,0,0,0,0,0,0,0,0,0
625,1.9104555,-1.0541209,0.019592479,-0.018515095,0.004482899,-0.05299664,-0.26156655,8.317756,4.6501384,0,0,0,0,0,0,0,0,0,0,0,0,0,0,0,0,0,0,0,0,0
626,1.9107841,-1.0553883,0.02674419,0.058183946,0.044962946,-0.09560721,-0.3645172,8.3991585,4.654927,0,0,0,0,0,0,0,0,0,0,0,0,0,0,0,0,0,0,0,0,0
627,1.9104363,-1.057087,0.033311393,0.039009184,-0.005104481,-0.097737744,-0.4902128,8.529643,4.559159,0,0,0,0,0,0,0,0,0,0,0,0,0,0,0,0,0,0,0,0,0
628,1.910537,-1.0577464,0.0381913,-0.013188773,-0.061563496,-0.07749772,-0.46267948,8.424298,4.493318,0,0,0,0,0,0,0,0,0,0,0,0,0,0,0,0,0,0,0,0,0
629,1.9082615,-1.0581565,0.041459374,0.03048707,-0.01895292,-0.07856298,-0.38367084,8.357261,4.44304,0,0,0,0,0,0,0,0,0,0,0,0,0,0,0,0,0,0,0,0,0
630,1.9085848,-1.0603667,0.04883166,0.052857623,0.018331336,-0.09347669,-0.57161564,8.5260515,4.4047327,0,0,0,0,0,0,0,0,0,0,0,0,0,0,0,0,0,0,0,0,0
631,1.9062879,-1.0618461,0.053643946,0.01876916,-0.03919294,-0.013581855,-0.682946,8.676887,4.4274774,0,0,0,0,0,0,0,0,0,0,0,0,0,0,0,0,0,0,0,0,0
632,1.8977783,-1.062561,0.050242364,-0.011058244,-0.082868785,0.034355044,-0.31064767,8.2950115,4.2922053,0,0,0,0,0,0,0,0,0,0,0,0,0,0,0,0,0,0,0,0,0
633,1.8952135,-1.062062,0.0512757,-0.008927715,-0.07541193,-0.037017673,-0.9044097,8.712799,4.7387238,0,0,0,0,0,0,0,0,0,0,0,0,0,0,0,0,0,0,0,0,0
634,1.8916857,-1.0621234,0.053350862,0.2872158,-0.2170921,0.7033411,-6.5870476,13.157635,7.611766,0,0,0,0,0,0,0,0,0,0,0,0,0,0,0,0,0,0,0,0,0
635,1.7585918,-1.0821795,-0.070512146,0.8709807,-0.3758165,2.704973,-2.9131448,10.132561,5.653309,0,0,0,0,0,0,0,0,0,0,0,0,0,0,0,0,0,0,0,0,0
636,1.5978291,-1.0969865,-0.20319872,1.3066396,0.37409398,3.3462973,-4.293402,10.538378,5.3863554,0,0,0,0,0,0,0,0,0,0,0,0,0,0,0,0,0,0,0,0,0
637,1.2888612,-1.0856384,-0.45878682,1.4142312,-0.036032837,5.5439377,-10.814011,11.808502,5.0020857,0,0,0,0,0,0,0,0,0,0,0,0,0,0,0,0,0,0,0,0,0
638,0.983197,-0.9878463,-0.7210987,1.135132,-0.54522926,9.110443,-9.3822775,2.0449476,2.0847511,0,0,0,0,0,0,0,0,0,0,0,0,0,0,0,0,0,0,0,0,0
639,0.6338102,-0.75080514,-1.0054938,2.1332848,0.8321577,9.248927,4.911106,-2.923021,6.187216,0,0,0,0,0,0,0,0,0,0,0,0,0,0,0,0,0,0,0,0,0
640,0.46328476,-0.55666554,-1.144279,2.1130447,0.034274615,6.1873574,12.8610525,-1.2925696,1.7112557,0,0,0,0,0,0,0,0,0,0,0,0,0,0,0,0,0,0,0,0,0
641,0.43730658,-0.45258483,-1.1898494,1.9830824,1.5693207,4.1899867,12.928091,-0.5443816,-0.040102877,0,0,0,0,0,0,0,0,0,0,0,0,0,0,0,0,0,0,0,0,0
642,0.38836467,-0.35859272,-1.1521614,1.7210274,2.5706692,3.3707983,11.733384,-1.0016742,3.364452,0,0,0,0,0,0,0,0,0,0,0,0,0,0,0,0,0,0,0,0,0
643,0.4077822,-0.29005933,-1.138568,0.14869706,0.41457403,1.9838241,16.453552,-3.7562032,4.83928,0,0,0,0,0,0,0,0,0,0,0,0,0,0,0,0,0,0,0,0,0
644,0.39465758,-0.2628772,-1.1410042,0.45229742,-0.10420976,0.12387241,10.29806,-0.06314707,4.8704047,0,0,0,0,0,0,0,0,0,0,0,0,0,0,0,0,0,0,0,0,0
645,0.37518603,-0.26764375,-1.1563469,0.5822597,-0.3928964,0.1121545,7.629722,1.718139,3.7008374,0,0,0,0,0,0,0,0,0,0,0,0,0,0,0,0,0,0,0,0,0
646,0.33941433,-0.26673475,-1.1684116,0.768681,-0.057338126,0.28366208,8.713099,1.3350667,2.6593595,0,0,0,0,0,0,0,0,0,0,0,0,0,0,0,0,0,0,0,0,0
647,0.30061364,-0.2663703,-1.1790327,0.44271004,-0.08929606,0.20163672,9.214684,2.0138228,2.2667105,0,0,0,0,0,0,0,0,0,0,0,0,0,0,0,0,0,0,0,0,0
648,0.27905095,-0.26502433,-1.1863015,0.22965716,-0.08077394,0.036520727,9.741408,2.2843678,2.7084408,0,0,0,0,0,0,0,0,0,0,0,0,0,0,0,0,0,0,0,0,0
649,0.26252037,-0.27128747,-1.1908993,0.26268035,-0.050946537,-0.07533204,8.395866,3.1642368,2.8293478,0,0,0,0,0,0,0,0,0,0,0,0,0,0,0,0,0,0,0,0,0
650,0.246203,-0.274183,-1.1984763,0.1178044,-0.2437594,0.008823851,8.5862055,2.988263,2.3229742,0,0,0,0,0,0,0,0,0,0,0,0,0,0,0,0,0,0,0,0,0
651,0.2296043,-0.27579305,-1.2061683,0.20835188,-0.030706514,0.034390196,9.268554,2.8984804,2.5791538,0,0,0,0,0,0,0,0,0,0,0,0,0,0,0,0,0,0,0,0,0
652,0.21077718,-0.27960348,-1.2130373,0.25948456,-0.12871084,-0.0763973,9.308058,2.8003182,2.5013423,0,0,0,0,0,0,0,0,0,0,0,0,0,0,0,0,0,0,0,0,0
653,0.190851,-0.2866488,-1.2201309,0.28610578,-0.031782962,-0.18397836,8.916606,3.0971992,1.6861166,0,0,0,0,0,0,0,0,0,0,0,0,0,0,0,0,0,0,0,0,0
654,0.17479634,-0.29327214,-1.223887,0.020854948,-0.011542939,-0.14775936,9.381081,2.797924,1.9554642,0,0,0,0,0,0,0,0,0,0,0,0,0,0,0,0,0,0,0,0,0
655,0.16544455,-0.2952845,-1.2280339,-0.24333063,-0.22353056,-0.31926695,10.274118,2.168249,2.2990322,0,0,0,0,0,0,0,0,0,0,0,0,0,0,0,0,0,0,0,0,0
656,0.1709353,-0.3083803,-1.2345421,-0.2561138,-0.31940436,-0.6463031,8.830415,2.917634,2.5073278,0,0,0,0,0,0,0,0,0,0,0,0,0,0,0,0,0,0,0,0,0
657,0.17014779,-0.32138827,-1.2408812,-0.21669902,-0.3055559,-0.62393254,9.128492,2.857779,2.11827,0,0,0,0,0,0,0,0,0,0,0,0,0,0,0,0,0,0,0,0,0
658,0.17869689,-0.33990988,-1.2474172,-0.454253,-0.38225496,-0.9222066,10.107721,2.7907414,2.5767596,0,0,0,0,0,0,0,0,0,0,0,0,0,0,0,0,0,0,0,0,0
659,0.19976494,-0.36622608,-1.2595828,-0.7237649,-0.87547237,-1.2034364,9.985617,2.6614544,2.617461,0,0,0,0,0,0,0,0,0,0,0,0,0,0,0,0,0,0,0,0,0
660,0.20776898,-0.38979167,-1.27655,-0.7663755,-1.0139568,-1.6742833,11.329961,1.7109563,1.7292122,0,0,0,0,0,0,0,0,0,0,0,0,0,0,0,0,0,0,0,0,0
661,0.22904804,-0.44976032,-1.28449,-0.6566532,-0.34923175,-2.571236,10.808025,2.4280198,0.6434417,0,0,0,0,0,0,0,0,0,0,0,0,0,0,0,0,0,0,0,0,0
662,0.23615104,-0.5098747,-1.2670226,-0.73441756,0.31016693,-3.3552706,10.4249525,1.9623476,0.65301853,0,0,0,0,0,0,0,0,0,0,0,0,0,0,0,0,0,0,0,0,0
663,0.40287507,-0.61272323,-1.2147433,-1.3820983,0.13120249,-4.385381,9.145252,1.4128783,1.0803835,0,0,0,0,0,0,0,0,0,0,0,0,0,0,0,0,0,0,0,0,0
664,0.5985723,-0.7362899,-1.115256,-1.7123302,0.22920682,-5.4048395,5.9873,1.3254899,2.5276785,0,0,0,0,0,0,0,0,0,0,0,0,0,0,0,0,0,0,0,0,0
665,0.77959263,-0.8345761,-0.9926638,-1.6718502,0.08859192,-6.074891,3.0340521,2.1251533,4.1461587,0,0,0,0,0,0,0,0,0,0,0,0,0,0,0,0,0,0,0,0,0
666,1.0725064,-0.95755845,-0.7629315,-1.3330961,-0.06480616,-6.2112446,0.02813187,3.1690252,4.8404775,0,0,0,0,0,0,0,0,0,0,0,0,0,0,0,0,0,0,0,0,0
667,1.342033,-1.0238278,-0.5303534,-0.96984094,-0.24803165,-5.636002,-5.4976854,8.462605,6.5499372,0,0,0,0,0,0,0,0,0,0,0,0,0,0,0,0,0,0,0,0,0
668,1.6385545,-1.0584695,-0.28484794,-0.55758363,-0.83499235,-3.3488789,-5.051167,11.970111,6.211158,0,0,0,0,0,0,0,0,0,0,0,0,0,0,0,0,0,0,0,0,0
669,1.7690712,-1.0639546,-0.17724462,-0.3082987,-0.5143339,-1.8500655,-4.0144777,11.1931925,5.084686,0,0,0,0,0,0,0,0,0,0,0,0,0,0,0,0,0,0,0,0,0
670,1.864247,-1.0575807,-0.0981244,-0.3264082,-0.38650218,-0.7592347,-4.168904,11.427824,5.762245,0,0,0,0,0,0,0,0,0,0,0,0,0,0,0,0,0,0,0,0,0
671,1.8878642,-1.0547132,-0.075427905,0.09224071,-0.016855413,-0.16481718,-2.202067,9.375993,5.522825,0,0,0,0,0,0,0,0,0,0,0,0,0,0,0,0,0,0,0,0,0
672,1.8958018,-1.0641882,-0.05576243,0.46295273,0.19513221,-0.24471201,-1.5424645,8.881591,4.5232453,0,0,0,0,0,0,0,0,0,0,0,0,0,0,0,0,0,0,0,0,0
673,1.9101592,-1.083235,-0.025150487,0.46508327,0.093932085,-0.32247633,-1.3676877,8.967782,3.34051,0,0,0,0,0,0,0,0,0,0,0,0,0,0,0,0,0,0,0,0,0
674,1.9205524,-1.0932177,-0.0012138234,0.09011018,-0.10314183,-0.08279182,-2.0284874,9.978135,2.8173769,0,0,0,0,0,0,0,0,0,0,0,0,0,0,0,0,0,0,0,0,0
675,1.8936408,-1.0940744,-0.014427828,-0.12081217,-0.007268033,0.38805506,-0.53330845,8.905533,3.0951042,0,0,0,0,0,0,0,0,0,0,0,0,0,0,0,0,0,0,0,0,0
676,1.8605223,-1.0910083,-0.03413727,-0.10270268,0.13867319,0.31881288,0.6817489,7.844901,3.839701,0,0,0,0,0,0,0,0,0,0,0,0,0,0,0,0,0,0,0,0,0
677,1.8420773,-1.089317,-0.038775437,-0.033460487,0.11949843,-0.02526754,0.3657143,8.230368,3.9905357,0,0,0,0,0,0,0,0,0,0,0,0,0,0,0,0,0,0,0,0,0
678,1.8393781,-1.0901583,-0.027192896,-0.02387311,0.14719531,-0.027398068,-0.5069722,9.094674,3.9223008,0,0,0,0,0,0,0,0,0,0,0,0,0,0,0,0,0,0,0,0,0
679,1.8265353,-1.0880525,-0.029139291,-0.13998693,0.09180156,0.1771327,0.020949265,8.633791,4.2838254,0,0,0,0,0,0,0,0,0,0,0,0,0,0,0,0,0,0,0,0,0
680,1.8112665,-1.0818006,-0.039189063,-0.14744379,0.0246899,0.12173895,0.57760113,8.248324,4.779425,0,0,0,0,0,0,0,0,0,0,0,0,0,0,0,0,0,0,0,0,0
681,1.8060366,-1.0794697,-0.041459233,-0.0046983487,-0.020051206,-0.05189915,0.4758476,8.304588,4.71957,0,0,0,0,0,0,0,0,0,0,0,0,0,0,0,0,0,0,0,0,0
682,1.8091626,-1.0806214,-0.036495134,0.056021724,-0.07864075,-0.18079615,0.3764882,8.247127,4.455011,0,0,0,0,0,0,0,0,0,0,0,0,0,0,0,0,0,0,0,0,0
683,1.8190519,-1.0840144,-0.023322817,0.079457544,-0.05946599,-0.30436683,0.25318682,8.25431,4.0276456,0,0,0,0,0,0,0,0,0,0,0,0,0,0,0,0,0,0,0,0,0
684,1.8305178,-1.0865992,-0.0063082846,0.049630135,0.0246899,-0.39917535,0.11791443,8.384793,4.044405,0,0,0,0,0,0,0,0,0,0,0,0,0,0,0,0,0,0,0,0,0
685,1.856981,-1.0884494,0.02349963,0.07732701,0.033212014,-0.49185336,-0.0017956513,8.3512745,4.3783965,0,0,0,0,0,0,0,0,0,0,0,0,0,0,0,0,0,0,0,0,0
686,1.8824186,-1.091794,0.05354454,0.16469467,-0.05199263,-0.538741,-1.01574,8.991724,4.2742486,0,0,0,0,0,0,0,0,0,0,0,0,0,0,0,0,0,0,0,0,0
687,1.9058236,-1.0966971,0.07878397,0.07201667,-0.2171086,-0.30651334,-1.003769,8.965387,3.651756,0,0,0,0,0,0,0,0,0,0,0,0,0,0,0,0,0,0,0,0,0
688,1.9116024,-1.0978254,0.088235795,-0.0036171053,-0.113777965,-0.24898905,-0.66379243,8.52246,3.6613328,0,0,0,0,0,0,0,0,0,0,0,0,0,0,0,0,0,0,0,0,0
689,1.9279078,-1.098066,0.10858536,0.06988614,0.024706412,-0.3192965,-0.95588505,8.703222,4.12102,0,0,0,0,0,0,0,0,0,0,0,0,0,0,0,0,0,0,0,0,0
690,1.9495308,-1.1012267,0.13367774,0.17960837,-0.0029904635,-0.32355756,-1.0468647,8.627805,4.446631,0,0,0,0,0,0,0,0,0,0,0,0,0,0,0,0,0,0,0,0,0
691,1.9652481,-1.1052691,0.15066694,0.18386944,-0.21284756,-0.38640815,-0.86370826,8.478168,3.9270895,0,0,0,0,0,0,0,0,0,0,0,0,0,0,0,0,0,0,0,0,0
692,1.9916542,-1.1071447,0.17372894,0.03792821,-0.22243494,-0.45245457,-0.99299514,8.516475,3.7223852,0,0,0,0,0,0,0,0,0,0,0,0,0,0,0,0,0,0,0,0,0
693,2.010946,-1.1070181,0.19389349,0.0890609,-0.11803902,-0.43647557,-1.1019313,8.769063,4.019266,0,0,0,0,0,0,0,0,0,0,0,0,0,0,0,0,0,0,0,0,0
694,2.0405514,-1.1065673,0.22086716,0.04858085,-0.18302014,-0.49826092,-0.97384155,8.384793,4.1054573,0,0,0,0,0,0,0,0,0,0,0,0,0,0,0,0,0,0,0,0,0
695,2.066963,-1.1040312,0.24516109,0.035797678,-0.299134,-0.4993262,-1.9183542,9.03482,4.0898952,0,0,0,0,0,0,0,0,0,0,0,0,0,0,0,0,0,0,0,0,0
696,2.088393,-1.1045916,0.26449472,0.10930093,-0.24054444,-0.208509,-2.0272903,9.245509,3.5655649,0,0,0,0,0,0,0,0,0,0,0,0,0,0,0,0,0,0,0,0,0
697,2.090399,-1.1092188,0.2732206,0.13380201,0.035359055,-0.051915128,-1.5077485,8.690054,3.2854433,0,0,0,0,0,0,0,0,0,0,0,0,0,0,0,0,0,0,0,0,0
698,2.0909414,-1.1123542,0.2840704,0.107170396,0.14614655,-0.08387306,-1.4670471,8.4386635,3.721188,0,0,0,0,0,0,0,0,0,0,0,0,0,0,0,0,0,0,0,0,0
699,2.0956547,-1.1115419,0.29223526,-0.05048874,-0.22563073,-0.14991945,-1.5987282,8.634988,3.8804023,0,0,0,0,0,0,0,0,0,0,0,0,0,0,0,0,0,0,0,0,0
700,2.0965538,-1.109083,0.29189166,-0.09522985,-0.39181197,-0.099852026,-1.7591397,8.899547,3.6002808,0,0,0,0,0,0,0,0,0,0,0,0,0,0,0,0,0,0,0,0,0
701,2.0932052,-1.1067295,0.28663903,-0.0696635,-0.18302014,0.036501817,-1.9470845,9.042002,3.6469676,0,0,0,0,0,0,0,0,0,0,0,0,0,0,0,0,0,0,0,0,0
702,2.0866663,-1.1069483,0.28411007,0.21156631,0.1866266,0.20907466,-2.2176294,9.2347355,4.766257,0,0,0,0,0,0,0,0,0,0,0,0,0,0,0,0,0,0,0,0,0
703,2.0746546,-1.120533,0.28670344,0.5907925,0.18022676,0.61388314,-6.7654157,12.474091,6.4900823,0,0,0,0,0,0,0,0,0,0,0,0,0,0,0,0,0,0,0,0,0
704,1.9554586,-1.1611854,0.17960344,1.2949322,-0.34920967,2.8275027,-10.219051,14.837167,7.401076,0,0,0,0,0,0,0,0,0,0,0,0,0,0,0,0,0,0,0,0,0
705,1.6858941,-1.2024984,-0.074992105,1.6624485,-0.103133574,4.7556314,-4.222773,8.781034,5.8412538,0,0,0,0,0,0,0,0,0,0,0,0,0,0,0,0,0,0,0,0,0
706,1.1977584,-1.1992208,-0.53955495,2.4187863,-0.58569837,5.584407,-10.371083,10.222343,9.359533,0,0,0,0,0,0,0,0,0,0,0,0,0,0,0,0,0,0,0,0,0
707,0.76559013,-1.1162808,-0.9546818,3.6108172,-0.60061204,8.11228,-6.6612678,3.4443583,4.502895,0,0,0,0,0,0,0,0,0,0,0,0,0,0,0,0,0,0,0,0,0
708,0.33841118,-0.8803855,-1.3148474,4.681408,0.6137894,8.6395855,-0.08798691,-2.185607,5.6485205,0,0,0,0,0,0,0,0,0,0,0,0,0,0,0,0,0,0,0,0,0
709,0.17615193,-0.63872194,-1.5145291,3.1378398,-1.1907686,6.4483366,13.529036,-2.7829602,-6.6983776,0,0,0,0,0,0,0,0,0,0,0,0,0,0,0,0,0,0,0,0,0
710,0.18081988,-0.5103949,-1.5627255,2.6488833,2.2425787,3.788371,15.383345,-0.1086369,-8.098986,0,0,0,0,0,0,0,0,0,0,0,0,0,0,0,0,0,0,0,0,0
711,0.15651077,-0.40890267,-1.4665579,2.0970764,4.3475413,2.619776,10.829573,0.12838906,0.3357868,0,0,0,0,0,0,0,0,0,0,0,0,0,0,0,0,0,0,0,0,0
712,0.20214432,-0.34087563,-1.4283326,-0.27420226,0.39114913,1.817632,15.4563675,-3.4138324,1.4838065,0,0,0,0,0,0,0,0,0,0,0,0,0,0,0,0,0,0,0,0,0
713,0.25468212,-0.30933398,-1.4274029,0.13698982,0.1823573,0.055684566,10.50037,-0.38037878,1.5041572,0,0,0,0,0,0,0,0,0,0,0,0,0,0,0,0,0,0,0,0,0
714,0.23508838,-0.3087655,-1.4205611,0.59398824,0.33575538,0.17605945,8.213907,1.1902175,1.4443022,0,0,0,0,0,0,0,0,0,0,0,0,0,0,0,0,0,0,0,0,0
715,0.18940814,-0.29694054,-1.4238362,0.23073308,0.016176041,0.20269106,11.0618105,0.55455697,0.22445641,0,0,0,0,0,0,0,0,0,0,0,0,0,0,0,0,0,0,0,0,0
716,0.17683345,-0.29854438,-1.4240627,-0.025995648,0.06943926,-0.16802096,9.248202,2.4711154,0.6925228,0,0,0,0,0,0,0,0,0,0,0,0,0,0,0,0,0,0,0,0,0
717,0.1700866,-0.30024615,-1.4234868,-0.15276212,-0.02004295,-0.039123967,9.63726,2.9116485,0.7428011,0,0,0,0,0,0,0,0,0,0,0,0,0,0,0,0,0,0,0,0,0
718,0.16769135,-0.30224037,-1.4271748,-0.26887593,-0.19900738,-0.1850652,10.092158,2.940379,0.64942724,0,0,0,0,0,0,0,0,0,0,0,0,0,0,0,0,0,0,0,0,0
719,0.16771473,-0.31150988,-1.4317958,-0.22734128,-0.19475724,-0.35123554,8.652046,3.9591117,0.65660983,0,0,0,0,0,0,0,0,0,0,0,0,0,0,0,0,0,0,0,0,0
720,0.16424948,-0.3235216,-1.4344682,0.016604276,-0.015792811,-0.26281857,8.874707,4.114735,0.7691373,0,0,0,0,0,0,0,0,0,0,0,0,0,0,0,0,0,0,0,0,0
721,0.1520778,-0.33004677,-1.4396789,-0.06222529,-0.27252153,-0.28092808,9.739014,3.534141,0.095169514,0,0,0,0,0,0,0,0,0,0,0,0,0,0,0,0,0,0,0,0,0
722,0.14927536,-0.34360236,-1.4505018,-0.23053707,-0.28956577,-0.3885198,8.547898,4.1817727,0.020949265,0,0,0,0,0,0,0,0,0,0,0,0,0,0,0,0,0,0,0,0,0
723,0.14827642,-0.35382047,-1.4543911,-0.21455811,-0.08077394,-0.24897014,8.975264,3.92679,0.30107087,0,0,0,0,0,0,0,0,0,0,0,0,0,0,0,0,0,0,0,0,0
724,0.14401427,-0.35859486,-1.4563546,-0.26462552,-0.22032358,-0.29584178,9.979631,3.3031006,0.42437226,0,0,0,0,0,0,0,0,0,0,0,0,0,0,0,0,0,0,0,0,0
725,0.14730237,-0.37225756,-1.4643661,-0.39671832,-0.40567958,-0.59624636,9.731832,3.4730887,0.31184477,0,0,0,0,0,0,0,0,0,0,0,0,0,0,0,0,0,0,0,0,0
726,0.15018603,-0.38906857,-1.4707077,-0.37434778,-0.29595736,-0.6910549,8.595782,3.9447465,0.22445641,0,0,0,0,0,0,0,0,0,0,0,0,0,0,0,0,0,0,0,0,0
727,0.15563141,-0.40973926,-1.4720579,-0.3104319,-0.14682034,-0.63246536,9.0842,3.7915177,0.4830302,0,0,0,0,0,0,0,0,0,0,0,0,0,0,0,0,0,0,0,0,0
728,0.16269642,-0.43204865,-1.4741621,-0.45211208,-0.31087106,-0.8966509,10.4883995,3.6071641,0.5895722,0,0,0,0,0,0,0,0,0,0,0,0,0,0,0,0,0,0,0,0,0
729,0.17088485,-0.45853525,-1.4794308,-0.49259213,-0.6357767,-1.2865376,9.577405,3.939958,0.7188591,0,0,0,0,0,0,0,0,0,0,0,0,0,0,0,0,0,0,0,0,0
730,0.18330774,-0.5018492,-1.4956772,-0.62468493,-0.88078755,-1.5507233,10.111312,3.3785179,0.044891283,0,0,0,0,0,0,0,0,0,0,0,0,0,0,0,0,0,0,0,0,0
731,0.18000759,-0.5435575,-1.5063814,-0.7535819,-0.620863,-2.2165136,10.736199,2.8709471,-0.96665895,0,0,0,0,0,0,0,0,0,0,0,0,0,0,0,0,0,0,0,0,0
732,0.29883447,-0.6235308,-1.4944456,-0.7205587,0.20897798,-3.0314407,10.775703,2.265214,-1.1869255,0,0,0,0,0,0,0,0,0,0,0,0,0,0,0,0,0,0,0,0,0
733,0.40389618,-0.7007938,-1.4623468,-1.0454644,0.49340358,-4.132924,9.528324,1.397316,-0.3633201,0,0,0,0,0,0,0,0,0,0,0,0,0,0,0,0,0,0,0,0,0
734,0.55117345,-0.8389751,-1.3866575,-1.4502648,0.15997581,-5.5550528,8.174403,0.12958616,0.7332243,0,0,0,0,0,0,0,0,0,0,0,0,0,0,0,0,0,0,0,0,0
735,0.7771873,-1.0172772,-1.2387733,-1.7091241,0.08540731,-6.7801065,3.2303767,0.82151043,0.87328506,0,0,0,0,0,0,0,0,0,0,0,0,0,0,0,0,0,0,0,0,0
736,1.054536,-1.1438797,-0.9911715,-1.6995181,0.20899716,-7.078399,-0.024540568,1.4272435,3.0627825,0,0,0,0,0,0,0,0,0,0,0,0,0,0,0,0,0,0,0,0,0
737,1.6641297,-1.2556406,-0.42389068,-1.1572984,-1.0022085,-6.7449718,-8.437765,9.359234,8.279748,0,0,0,0,0,0,0,0,0,0,0,0,0,0,0,0,0,0,0,0,0
738,2.1179316,-1.2590225,-0.03548622,-0.6321231,-2.8419201,-4.263971,-12.883798,16.54543,6.332065,0,0,0,0,0,0,0,0,0,0,0,0,0,0,0,0,0,0,0,0,0
739,2.2986395,-1.2436926,0.08383026,-0.3391754,-1.9598812,-1.1043963,-7.1006036,12.975676,2.8353333,0,0,0,0,0,0,0,0,0,0,0,0,0,0,0,0,0,0,0,0,0
740,2.399074,-1.2258188,0.14613225,-0.345567,-0.7241745,-0.9264972,-5.0140567,9.474155,2.6581624,0,0,0,0,0,0,0,0,0,0,0,0,0,0,0,0,0,0,0,0,0
741,2.4829938,-1.2032515,0.2248875,-0.31680486,-0.026426282,-0.91371405,-4.731541,8.6709,4.0240545,0,0,0,0,0,0,0,0,0,0,0,0,0,0,0,0,0,0,0,0,0
742,2.5599828,-1.195181,0.31997967,0.37135598,0.4710522,-0.70385695,-5.5946507,10.680833,3.733159,0,0,0,0,0,0,0,0,0,0,0,0,0,0,0,0,0,0,0,0,0
743,2.5908303,-1.2050173,0.37920916,0.5705604,0.50514066,-0.014630875,-4.5136685,10.406697,2.058415,0,0,0,0,0,0,0,0,0,0,0,0,0,0,0,0,0,0,0,0,0
744,2.5747366,-1.2164156,0.38862234,0.01662292,-0.012577844,0.363538,-2.842516,9.14615,1.7256209,0,0,0,0,0,0,0,0,0,0,0,0,0,0,0,0,0,0,0,0,0
745,2.5332575,-1.2161527,0.3578118,-0.2997606,-0.2799592,0.36140746,-1.5269021,8.388385,2.167351,0,0,0,0,0,0,0,0,0,0,0,0,0,0,0,0,0,0,0,0,0
746,2.4962547,-1.2134516,0.33038002,-0.18151626,-0.10632111,0.1387672,-1.1031284,8.354866,2.034473,0,0,0,0,0,0,0,0,0,0,0,0,0,0,0,0,0,0,0,0,0
747,2.4797018,-1.2124755,0.33156598,-0.11120881,0.27823934,-0.014630875,-1.3868413,8.840889,2.2188265,0,0,0,0,0,0,0,0,0,0,0,0,0,0,0,0,0,0,0,0,0
748,2.4704545,-1.2079915,0.34305105,-0.19642997,0.27504355,0.0045438856,-1.8189948,9.243114,2.7982233,0,0,0,0,0,0,0,0,0,0,0,0,0,0,0,0,0,0,0,0,0
749,2.4486926,-1.2017264,0.3370361,-0.2678027,0.08862228,0.1355714,-1.5640123,8.880393,2.8580782,0,0,0,0,0,0,0,0,0,0,0,0,0,0,0,0,0,0,0,0,0
750,2.4294858,-1.1949723,0.32547274,-0.32532695,0.06731699,0.07165554,-1.074398,8.290223,3.1070752,0,0,0,0,0,0,0,0,0,0,0,0,0,0,0,0,0,0,0,0,0
751,2.4333692,-1.1855347,0.33693218,-0.11333934,0.23562877,-0.23407535,-1.4921862,8.563162,3.8576574,0,0,0,0,0,0,0,0,0,0,0,0,0,0,0,0,0,0,0,0,0
752,2.4507422,-1.1816547,0.36243775,0.04538506,0.16212553,-0.32355756,-2.0153193,8.857649,3.7714663,0,0,0,0,0,0,0,0,0,0,0,0,0,0,0,0,0,0,0,0,0
753,2.4746876,-1.1795048,0.3937977,0.047510263,0.016178703,-0.29905114,-2.1410148,8.947431,3.2638955,0,0,0,0,0,0,0,0,0,0,0,0,0,0,0,0,0,0,0,0,0
754,2.4946792,-1.1759646,0.41890684,0.03259656,-0.039215047,-0.24578793,-2.557606,9.179668,3.3967736,0,0,0,0,0,0,0,0,0,0,0,0,0,0,0,0,0,0,0,0,0
755,2.5027406,-1.1751448,0.43431756,0.05177132,-0.060520336,-0.16056678,-2.461838,9.008483,2.9430726,0,0,0,0,0,0,0,0,0,0,0,0,0,0,0,0,0,0,0,0,0
756,2.5114524,-1.1735392,0.44865644,0.04964079,-0.021105552,-0.14884886,-2.3493104,8.680477,3.208829,0,0,0,0,0,0,0,0,0,0,0,0,0,0,0,0,0,0,0,0,0
757,2.519707,-1.173912,0.46571463,0.1092956,-0.020040287,-0.1989163,-2.3122003,8.639776,2.7036524,0,0,0,0,0,0,0,0,0,0,0,0,0,0,0,0,0,0,0,0,0
758,2.5302851,-1.1728207,0.48574597,0.05922817,-8.6552737E-4,-0.2436574,-2.6246436,8.899547,2.7503393,0,0,0,0,0,0,0,0,0,0,0,0,0,0,0,0,0,0,0,0,0
759,2.5417218,-1.1708982,0.50763685,0.0144870635,-0.033888724,-0.10943408,-2.9299042,9.190442,2.4785974,0,0,0,0,0,0,0,0,0,0,0,0,0,0,0,0,0,0,0,0,0
760,2.538353,-1.1706353,0.51712745,-0.023862455,0.052397694,-0.015690813,-2.6114755,8.82413,2.321777,0,0,0,0,0,0,0,0,0,0,0,0,0,0,0,0,0,0,0,0,0
761,2.5321915,-1.1682664,0.5257441,-0.051559333,0.14933676,-0.03166978,-2.5528176,8.699631,2.8724434,0,0,0,0,0,0,0,0,0,0,0,0,0,0,0,0,0,0,0,0,0
762,2.5291665,-1.1663306,0.5349388,-0.01747087,0.08115983,-0.015690813,-3.1070752,9.237129,2.9706059,0,0,0,0,0,0,0,0,0,0,0,0,0,0,0,0,0,0,0,0,0
763,2.5205486,-1.1660274,0.5375552,-0.06114671,-0.06797719,0.16327362,-3.3153708,9.457396,2.866458,0,0,0,0,0,0,0,0,0,0,0,0,0,0,0,0,0,0,0,0,0
764,2.4907663,-1.1644372,0.5145369,-0.23052375,-0.19687419,0.4359813,-4.5364137,9.893141,2.9909565,0,0,0,0,0,0,0,0,0,0,0,0,0,0,0,0,0,0,0,0,0
765,2.417752,-1.1748425,0.45691323,0.38306856,0.17490311,1.816564,-9.129689,14.172776,4.293402,0,0,0,0,0,0,0,0,0,0,0,0,0,0,0,0,0,0,0,0,0
766,2.2597508,-1.2155148,0.3320844,0.8390017,0.72777534,3.3601322,-4.8500543,10.049961,3.5715504,0,0,0,0,0,0,0,0,0,0,0,0,0,0,0,0,0,0,0,0,0
767,1.8904161,-1.2474229,0.008178595,0.54711926,0.2824948,4.7247357,-15.923237,16.067787,3.970185,0,0,0,0,0,0,0,0,0,0,0,0,0,0,0,0,0,0,0,0,0
768,1.366918,-1.199553,-0.45862806,0.59186035,1.0430936,9.458771,-24.962545,10.04637,1.9901801,0,0,0,0,0,0,0,0,0,0,0,0,0,0,0,0,0,0,0,0,0
769,0.7555016,-0.8624239,-0.9826506,-0.7109633,0.9344313,13.282011,3.8624458,-16.36766,4.11264,0,0,0,0,0,0,0,0,0,0,0,0,0,0,0,0,0,0,0,0,0
770,0.64388597,-0.596994,-1.0934876,0.19770722,-0.52178514,7.281376,17.607557,-6.911761,6.609792,0,0,0,0,0,0,0,0,0,0,0,0,0,0,0,0,0,0,0,0,0
771,0.55088043,-0.4398479,-1.1441371,2.8534114,2.2234013,4.144172,16.932392,-1.8133085,4.0156746,0,0,0,0,0,0,0,0,0,0,0,0,0,0,0,0,0,0,0,0,0
772,0.40326682,-0.3974137,-1.1214391,3.0270495,1.8857125,2.5835598,8.81964,2.0557215,3.3033998,0,0,0,0,0,0,0,0,0,0,0,0,0,0,0,0,0,0,0,0,0
773,0.40717652,-0.34934893,-1.1424497,1.0094388,-0.11804994,2.5526671,11.853094,-0.6832453,0.65541273,0,0,0,0,0,0,0,0,0,0,0,0,0,0,0,0,0,0,0,0,0
774,0.45307076,-0.29199836,-1.162736,0.050700728,0.16850619,1.2445223,12.328343,-0.45579615,1.775899,0,0,0,0,0,0,0,0,0,0,0,0,0,0,0,0,0,0,0,0,0
775,0.43282706,-0.27818784,-1.1470463,0.32021263,0.59248143,0.33372125,8.831612,2.1502924,3.6601357,0,0,0,0,0,0,0,0,0,0,0,0,0,0,0,0,0,0,0,0,0
776,0.4033005,-0.27092364,-1.1460203,0.3574969,0.13015667,0.45729193,9.2865095,1.9419968,2.9801826,0,0,0,0,0,0,0,0,0,0,0,0,0,0,0,0,0,0,0,0,0
777,0.37450555,-0.26512608,-1.1554382,0.31595156,-0.14681208,0.17712738,9.523536,2.407669,1.9147629,0,0,0,0,0,0,0,0,0,0,0,0,0,0,0,0,0,0,0,0,0
778,0.3489008,-0.26718175,-1.1625284,0.19983774,0.008716526,-0.04338236,9.723452,2.7715878,1.8788497,0,0,0,0,0,0,0,0,0,0,0,0,0,0,0,0,0,0,0,0,0
779,0.33860928,-0.27686796,-1.1641786,-0.07500047,0.11311244,-0.29798055,7.7973166,4.022558,2.202067,0,0,0,0,0,0,0,0,0,0,0,0,0,0,0,0,0,0,0,0,0
780,0.3321514,-0.28359652,-1.1600188,-0.110154204,0.23774838,-0.051904477,7.8212585,4.115932,2.4929626,0,0,0,0,0,0,0,0,0,0,0,0,0,0,0,0,0,0,0,0,0
781,0.3286147,-0.28243148,-1.1562253,-0.20922379,0.046000782,-0.03592551,9.371504,3.640683,3.163339,0,0,0,0,0,0,0,0,0,0,0,0,0,0,0,0,0,0,0,0,0
782,0.32416472,-0.2871188,-1.1555794,-0.07073942,-0.020045614,-0.20210676,8.653243,3.8932712,3.0556,0,0,0,0,0,0,0,0,0,0,0,0,0,0,0,0,0,0,0,0,0
783,0.31998336,-0.2944279,-1.155775,-0.059021506,0.05558816,-0.1200814,7.946954,4.0465,2.8054059,0,0,0,0,0,0,0,0,0,0,0,0,0,0,0,0,0,0,0,0,0
784,0.3123764,-0.29658866,-1.152921,-0.00895408,0.16850619,-0.065752916,9.012374,3.4359787,3.2758665,0,0,0,0,0,0,0,0,0,0,0,0,0,0,0,0,0,0,0,0,0
785,0.30448583,-0.30103752,-1.1512796,-0.10376261,-0.076504625,-0.33419955,9.86471,2.977489,3.304597,0,0,0,0,0,0,0,0,0,0,0,0,0,0,0,0,0,0,0,0,0
786,0.30177212,-0.30796984,-1.1564966,-0.29019693,-0.45788315,-0.6079589,10.077793,2.4890718,3.3955765,0,0,0,0,0,0,0,0,0,0,0,0,0,0,0,0,0,0,0,0,0
787,0.3101271,-0.3266255,-1.1722921,-0.350917,-0.723134,-1.0489784,10.180744,2.287959,3.2411506,0,0,0,0,0,0,0,0,0,0,0,0,0,0,0,0,0,0,0,0,0
788,0.31652683,-0.36071342,-1.1902654,-0.3210896,-0.799833,-1.6370044,11.5203,1.4715363,3.1310172,0,0,0,0,0,0,0,0,0,0,0,0,0,0,0,0,0,0,0,0,0
789,0.313955,-0.4050348,-1.2022306,-0.2827401,-0.7039592,-2.7107909,11.899781,1.1770494,2.2463598,0,0,0,0,0,0,0,0,0,0,0,0,0,0,0,0,0,0,0,0,0
790,0.44858575,-0.49943277,-1.1993227,-0.41909394,-0.49090633,-3.9869776,10.086173,1.4188638,1.8381484,0,0,0,0,0,0,0,0,0,0,0,0,0,0,0,0,0,0,0,0,0
791,0.58302563,-0.5881146,-1.1849772,-0.8185681,-0.73591715,-4.876474,8.328829,1.4428058,1.5041572,0,0,0,0,0,0,0,0,0,0,0,0,0,0,0,0,0,0,0,0,0
792,0.7767105,-0.73251307,-1.1300136,-1.2702402,-0.7316561,-5.8586473,5.1960163,1.9276316,1.525705,0,0,0,0,0,0,0,0,0,0,0,0,0,0,0,0,0,0,0,0,0
793,0.9935661,-0.88879496,-0.990873,-1.4875542,-0.57399696,-6.344408,1.4682442,2.7584198,2.8760347,0,0,0,0,0,0,0,0,0,0,0,0,0,0,0,0,0,0,0,0,0
794,1.2319189,-0.985003,-0.8101608,-1.6793017,-0.85948783,-6.400867,-0.6841431,3.3725324,4.216788,0,0,0,0,0,0,0,0,0,0,0,0,0,0,0,0,0,0,0,0,0
795,1.6281728,-1.0573174,-0.5024166,-1.8572009,-1.9396659,-5.5156326,-11.276092,12.568661,8.077438,0,0,0,0,0,0,0,0,0,0,0,0,0,0,0,0,0,0,0,0,0
796,1.8139466,-1.0498855,-0.3952246,-1.4396173,-2.7769637,-0.14669943,-9.52593,17.765276,4.123414,0,0,0,0,0,0,0,0,0,0,0,0,0,0,0,0,0,0,0,0,0
797,1.7889917,-1.0016448,-0.45867607,-0.9709009,-0.38544515,1.5151131,0.6889315,8.903138,4.7159786,0,0,0,0,0,0,0,0,0,0,0,0,0,0,0,0,0,0,0,0,0
798,1.7676449,-0.97555935,-0.46334678,0.119929865,1.1165776,0.23679577,1.929128,7.1757216,7.9756846,0,0,0,0,0,0,0,0,0,0,0,0,0,0,0,0,0,0,0,0,0
799,1.7712748,-1.0012714,-0.4149738,1.0680152,0.85026157,-0.6835927,-0.6745663,9.132981,6.591836,0,0,0,0,0,0,0,0,0,0,0,0,0,0,0,0,0,0,0,0,0
800,1.7748206,-1.0381051,-0.39034274,0.67706317,-0.24269973,-0.13498151,-1.6681601,10.683228,3.4314895,0,0,0,0,0,0,0,0,0,0,0,0,0,0,0,0,0,0,0,0,0
801,1.7260368,-1.0451764,-0.42299128,0.09755931,-0.2853103,0.67674994,1.204882,8.441057,2.3373394,0,0,0,0,0,0,0,0,0,0,0,0,0,0,0,0,0,0,0,0,0
802,1.664354,-1.0341302,-0.4634417,-0.06649141,0.04598693,0.44345707,3.4111388,7.1936784,3.316568,0,0,0,0,0,0,0,0,0,0,0,0,0,0,0,0,0,0,0,0,0
803,1.6405128,-1.0357989,-0.4656197,0.16678552,0.25263172,-0.19675088,2.7994204,7.771878,3.425504,0,0,0,0,0,0,0,0,0,0,0,0,0,0,0,0,0,0,0,0,0
804,1.6362834,-1.049557,-0.4450806,0.14228444,0.24624014,-0.31179944,1.4335283,8.657733,3.0556,0,0,0,0,0,0,0,0,0,0,0,0,0,0,0,0,0,0,0,0,0
805,1.6304024,-1.055525,-0.4314887,-0.0750295,0.13758317,-0.16692348,1.5448587,8.583512,3.2866404,0,0,0,0,0,0,0,0,0,0,0,0,0,0,0,0,0,0,0,0,0
806,1.6318804,-1.0525495,-0.41806975,-0.22842757,0.041709363,-0.14561819,1.9111716,8.102278,3.8121676,0,0,0,0,0,0,0,0,0,0,0,0,0,0,0,0,0,0,0,0,0
807,1.649475,-1.0499251,-0.39404342,-0.21457915,0.024665132,-0.3874332,1.3724761,8.412327,4.3400893,0,0,0,0,0,0,0,0,0,0,0,0,0,0,0,0,0,0,0,0,0
808,1.6678915,-1.05235,-0.36859593,-0.059050538,0.04277463,-0.47691542,0.76434886,8.68766,4.3640313,0,0,0,0,0,0,0,0,0,0,0,0,0,0,0,0,0,0,0,0,0
809,1.6937891,-1.0576825,-0.3343073,-0.028157867,0.029991455,-0.3426921,-0.3286042,9.404723,4.565144,0,0,0,0,0,0,0,0,0,0,0,0,0,0,0,0,0,0,0,0,0
810,1.698801,-1.0583163,-0.32273644,-0.068637915,-0.1393856,-0.015655925,0.13347675,9.09228,4.7399206,0,0,0,0,0,0,0,0,0,0,0,0,0,0,0,0,0,0,0,0,0
811,1.6942834,-1.0570211,-0.326274,0.010191651,-0.19690987,-0.0018074875,0.84455466,8.529643,4.56275,0,0,0,0,0,0,0,0,0,0,0,0,0,0,0,0,0,0,0,0,0
812,1.6904045,-1.0613571,-0.32351825,0.21046136,-0.033924412,-0.08170232,0.3489549,8.836101,4.198831,0,0,0,0,0,0,0,0,0,0,0,0,0,0,0,0,0,0,0,0,0
813,1.67574,-1.0722574,-0.32342443,0.31272674,0.14397475,0.090870515,0.66498953,8.996512,3.8073792,0,0,0,0,0,0,0,0,0,0,0,0,0,0,0,0,0,0,0,0,0
814,1.6481584,-1.0795319,-0.333377,0.24348456,0.2025643,0.16756956,1.6118963,8.169315,3.8935704,0,0,0,0,0,0,0,0,0,0,0,0,0,0,0,0,0,0,0,0,0
815,1.6325366,-1.084727,-0.33601448,0.20513505,0.06088412,-0.14135712,1.882441,8.034043,3.7978024,0,0,0,0,0,0,0,0,0,0,0,0,0,0,0,0,0,0,0,0,0
816,1.6398388,-1.0948864,-0.32106468,0.08795595,-0.20223619,-0.47371963,1.0696096,8.297405,3.2208,0,0,0,0,0,0,0,0,0,0,0,0,0,0,0,0,0,0,0,0,0
817,1.6591108,-1.1017251,-0.29802585,-0.03135366,-0.21608463,-0.519526,0.29628247,8.960599,3.2136173,0,0,0,0,0,0,0,0,0,0,0,0,0,0,0,0,0,0,0,0,0
818,1.6839162,-1.1074941,-0.26913786,0.018713767,-0.005162271,-0.42258695,0.43873745,8.809765,3.41473,0,0,0,0,0,0,0,0,0,0,0,0,0,0,0,0,0,0,0,0,0
819,1.708135,-1.1152316,-0.23497292,0.12312566,0.15144812,-0.47267035,0.38486794,8.61344,3.6661212,0,0,0,0,0,0,0,0,0,0,0,0,0,0,0,0,0,0,0,0,0
820,1.7350532,-1.1220376,-0.19768809,0.105016164,0.053443782,-0.43645135,-1.3880384,9.924265,3.8923733,0,0,0,0,0,0,0,0,0,0,0,0,0,0,0,0,0,0,0,0,0
821,1.736027,-1.1250753,-0.18652509,0.037904505,-0.038168956,0.33053905,-1.9506758,10.6916065,3.9977183,0,0,0,0,0,0,0,0,0,0,0,0,0,0,0,0,0,0,0,0,0
822,1.7021157,-1.1207757,-0.2118688,0.08158035,0.019355321,0.77688485,-1.7651252,9.820118,5.5264163,0,0,0,0,0,0,0,0,0,0,0,0,0,0,0,0,0,0,0,0,0
823,1.6159785,-1.1202084,-0.2826082,0.8421791,-0.34070405,1.913522,-10.627263,15.825973,7.60578,0,0,0,0,0,0,0,0,0,0,0,0,0,0,0,0,0,0,0,0,0
824,1.3989929,-1.1098742,-0.473614,1.3939861,0.026812173,5.4416776,-5.441422,10.077495,2.9993362,0,0,0,0,0,0,0,0,0,0,0,0,0,0,0,0,0,0,0,0,0
825,1.0406097,-1.019947,-0.7717208,1.14791,0.27714932,5.9817667,-3.8612487,6.5328784,4.196437,0,0,0,0,0,0,0,0,0,0,0,0,0,0,0,0,0,0,0,0,0
826,0.7664771,-0.8815151,-0.97077394,1.735936,0.5445307,6.9128075,-1.9782091,3.8130655,1.8620903,0,0,0,0,0,0,0,0,0,0,0,0,0,0,0,0,0,0,0,0,0
827,0.6071029,-0.7412359,-1.0799556,1.9340752,1.1538619,6.8435655,3.591901,0.839467,3.365649,0,0,0,0,0,0,0,0,0,0,0,0,0,0,0,0,0,0,0,0,0
828,0.47204256,-0.5703159,-1.1616111,2.2344797,1.5107255,5.8795013,8.509591,0.3139397,2.0500352,0,0,0,0,0,0,0,0,0,0,0,0,0,0,0,0,0,0,0,0,0
829,0.42645198,-0.45912975,-1.1765991,1.9660331,2.0934253,4.7790833,13.368624,-0.74429744,1.4598645,0,0,0,0,0,0,0,0,0,0,0,0,0,0,0,0,0,0,0,0,0
830,0.39426053,-0.34713534,-1.1555319,1.0009036,1.9080691,3.1534898,15.632341,-1.8911201,3.0747535,0,0,0,0,0,0,0,0,0,0,0,0,0,0,0,0,0,0,0,0,0
831,0.422687,-0.29901823,-1.1272734,0.6578884,1.431896,1.3073865,13.060968,-1.1369466,4.9338512,0,0,0,0,0,0,0,0,0,0,0,0,0,0,0,0,0,0,0,0,0
832,0.37992826,-0.27753523,-1.1085569,0.24137,0.27501878,0.5297435,9.272144,0.22176293,4.0396166,0,0,0,0,0,0,0,0,0,0,0,0,0,0,0,0,0,0,0,0,0
833,0.36107355,-0.2621681,-1.1097063,0.08690667,0.08433645,0.2921895,9.594165,0.5282208,4.264672,0,0,0,0,0,0,0,0,0,0,0,0,0,0,0,0,0,0,0,0,0
834,0.34127966,-0.25976205,-1.1072888,0.29143745,0.15038285,-0.056151953,10.019135,1.0884639,4.4681787,0,0,0,0,0,0,0,0,0,0,0,0,0,0,0,0,0,0,0,0,0
835,0.3272457,-0.2717244,-1.1123095,0.23497842,-0.20967653,-0.4439082,9.269751,2.3657706,3.7511156,0,0,0,0,0,0,0,0,0,0,0,0,0,0,0,0,0,0,0,0,0
836,0.31725404,-0.28862807,-1.1217264,0.17957935,-0.2831851,-0.48757872,7.6464815,3.7532105,2.7192147,0,0,0,0,0,0,0,0,0,0,0,0,0,0,0,0,0,0,0,0,0
837,0.30997595,-0.30643466,-1.1280777,0.14762141,-0.07439327,-0.23724158,7.1221514,4.532523,3.0831332,0,0,0,0,0,0,0,0,0,0,0,0,0,0,0,0,0,0,0,0,0
