nr,fusedX,fusedY,fusedZ,gyroX,gyroY,gyroZ,accX,accY,accZ,q,w,e,r,t,z,u,i,o,p,a,s,d,f,g,h,j,k,l,y
0,2.5672421,-0.35856315,-0.14187832,-0.108313955,0.20096906,-0.042993806,1.5539865,3.4624646,9.068936,0,0,0,0,0,0,0,0,0,0,0,0,0,0,0,0,0,0,0,0,0
1,2.5684886,-0.35843882,-0.14250705,-0.14666347,0.17327218,-0.045124333,1.6042647,3.420566,9.163507,0,0,0,0,0,0,0,0,0,0,0,0,0,0,0,0,0,0,0,0,0
2,2.5717573,-0.35358045,-0.13612573,-0.1370761,0.10935632,-0.067494884,1.357662,3.3307834,9.322722,0,0,0,0,0,0,0,0,0,0,0,0,0,0,0,0,0,0,0,0,0
3,2.575338,-0.3490928,-0.13230123,0.0067346017,-0.020605942,-0.047254864,1.2666824,3.2888849,9.548974,0,0,0,0,0,0,0,0,0,0,0,0,0,0,0,0,0,0,0,0,0
4,2.5783515,-0.35133085,-0.13358116,0.031235684,-0.0035617116,-0.028080104,1.5683517,3.3403602,8.817546,0,0,0,0,0,0,0,0,0,0,0,0,0,0,0,0,0,0,0,0,0
5,2.5820756,-0.3499829,-0.13354942,-0.122162394,0.0070909327,-0.08134332,1.702427,3.4959834,9.110835,0,0,0,0,0,0,0,0,0,0,0,0,0,0,0,0,0,0,0,0,0
6,2.5879407,-0.346825,-0.13463469,-0.058246527,-0.11115342,-0.14738972,1.2822447,3.4516907,9.435249,0,0,0,0,0,0,0,0,0,0,0,0,0,0,0,0,0,0,0,0,0
7,2.5907383,-0.34799913,-0.13780051,0.034431476,-0.097304985,0.009204151,1.501314,3.5091515,9.302371,0,0,0,0,0,0,0,0,0,0,0,0,0,0,0,0,0,0,0,0,0
8,2.594099,-0.3504791,-0.14212012,0.03230095,-0.11861027,-0.0792128,1.7790415,3.7796962,8.896554,0,0,0,0,0,0,0,0,0,0,0,0,0,0,0,0,0,0,0,0,0
9,2.6015065,-0.35100046,-0.1449963,-0.019897008,-0.14843768,-0.18893503,1.4270939,3.504363,9.072528,0,0,0,0,0,0,0,0,0,0,0,0,0,0,0,0,0,0,0,0,0
10,2.6097927,-0.35361418,-0.15160014,0.0546715,-0.24324621,-0.18360871,1.7790415,3.467253,9.337088,0,0,0,0,0,0,0,0,0,0,0,0,0,0,0,0,0,0,0,0,0
11,2.6116922,-0.35363904,-0.15219128,0.10473893,-0.3007705,-0.22408876,1.714398,3.5259109,9.359832,0,0,0,0,0,0,0,0,0,0,0,0,0,0,0,0,0,0,0,0,0
12,2.619952,-0.3581468,-0.15868925,0.050410442,-0.021671208,-0.23687193,1.4809633,3.4421139,9.188647,0,0,0,0,0,0,0,0,0,0,0,0,0,0,0,0,0,0,0,0,0
13,2.6282446,-0.35959283,-0.15416086,-0.055050734,0.13811846,-0.22089297,1.4498388,3.3990183,9.22456,0,0,0,0,0,0,0,0,0,0,0,0,0,0,0,0,0,0,0,0,0
14,2.6374342,-0.35751384,-0.145364,-0.024158066,0.12746581,-0.2166319,1.3636475,3.2852936,9.827899,0,0,0,0,0,0,0,0,0,0,0,0,0,0,0,0,0,0,0,0,0
15,2.6429527,-0.3614422,-0.14037117,0.2283096,0.017743576,-0.15378131,1.0547955,3.290082,9.363423,0,0,0,0,0,0,0,0,0,0,0,0,0,0,0,0,0,0,0,0,0
16,2.6434476,-0.3689992,-0.13679585,0.19954135,0.10615493,-0.042989545,1.1350013,3.5295022,9.192238,0,0,0,0,0,0,0,0,0,0,0,0,0,0,0,0,0,0,0,0,0
17,2.643582,-0.37532523,-0.13265674,0.1888887,0.12000337,-0.056837983,1.3385084,3.8922238,9.322722,0,0,0,0,0,0,0,0,0,0,0,0,0,0,0,0,0,0,0,0,0
18,2.6457257,-0.38428646,-0.12770598,0.21232451,0.14130867,-0.13566755,1.3073838,4.013131,8.831911,0,0,0,0,0,0,0,0,0,0,0,0,0,0,0,0,0,0,0,0,0
19,2.6529975,-0.39003724,-0.11899651,0.13136442,0.20948558,-0.205975,1.4630069,3.9867947,8.906131,0,0,0,0,0,0,0,0,0,0,0,0,0,0,0,0,0,0,0,0,0
20,2.6529717,-0.3903938,-0.11945754,0.1409518,0.059283298,-0.22941083,1.285836,3.9245455,8.991125,0,0,0,0,0,0,0,0,0,0,0,0,0,0,0,0,0,0,0,0,0
21,2.6603923,-0.39661837,-0.11565036,0.22297716,-0.07920108,-0.23367187,1.369633,4.1256585,9.115623,0,0,0,0,0,0,0,0,0,0,0,0,0,0,0,0,0,0,0,0,0
22,2.6696432,-0.40578312,-0.118232764,0.21019398,-0.22301178,-0.27521718,1.678485,4.263325,8.955213,0,0,0,0,0,0,0,0,0,0,0,0,0,0,0,0,0,0,0,0,0
23,2.6805239,-0.41469517,-0.12106779,0.23895612,-0.10370216,-0.3231541,1.4115316,4.333954,9.195829,0,0,0,0,0,0,0,0,0,0,0,0,0,0,0,0,0,0,0,0,0
24,2.6905653,-0.4250293,-0.12289315,0.2368256,-0.2879929,-0.38813522,1.2463316,4.57098,9.22456,0,0,0,0,0,0,0,0,0,0,0,0,0,0,0,0,0,0,0,0,0
25,2.7020097,-0.43458834,-0.12706463,0.18995395,-0.20170648,-0.27521718,1.3002012,4.4357076,8.803181,0,0,0,0,0,0,0,0,0,0,0,0,0,0,0,0,0,0,0,0,0
26,2.7043965,-0.42899927,-0.12813358,-0.22336864,0.020933777,-0.014227405,1.321749,4.357896,9.377789,0,0,0,0,0,0,0,0,0,0,0,0,0,0,0,0,0,0,0,0,0
27,2.7104187,-0.4315973,-0.12173416,0.1793013,0.16048342,-0.15697284,1.2966099,3.8718731,9.486725,0,0,0,0,0,0,0,0,0,0,0,0,0,0,0,0,0,0,0,0,0
28,2.7214084,-0.45424148,-0.11034852,0.68423665,0.3042941,-0.2603035,1.7910125,3.9089832,9.147945,0,0,0,0,0,0,0,0,0,0,0,0,0,0,0,0,0,0,0,0,0
29,2.7221541,-0.45352495,-0.11054033,0.9857065,0.17220132,-0.39026576,1.0811317,4.0179195,8.970775,0,0,0,0,0,0,0,0,0,0,0,0,0,0,0,0,0,0,0,0,0
30,2.7329197,-0.48812124,-0.10218803,1.2083467,0.30109832,-0.09199171,0.954239,4.016722,8.32434,0,0,0,0,0,0,0,0,0,0,0,0,0,0,0,0,0,0,0,0,0
31,2.732005,-0.52739143,-0.09514058,0.5276428,-0.12394218,-0.121819116,1.1565491,4.2573395,7.30441,0,0,0,0,0,0,0,0,0,0,0,0,0,0,0,0,0,0,0,0,0
32,2.7385776,-0.53436744,-0.10867868,-0.23402715,-1.2573888,-0.41476256,0.5005378,4.288464,7.9041576,0,0,0,0,0,0,0,0,0,0,0,0,0,0,0,0,0,0,0,0,0
33,2.7564948,-0.52579176,-0.14120357,-0.0060605556,-0.6640366,-0.21875392,1.5408185,4.4213424,8.348282,0,0,0,0,0,0,0,0,0,0,0,0,0,0,0,0,0,0,0,0,0
34,2.7606957,-0.5351997,-0.14437656,0.4541337,0.3096151,0.026256904,1.3133693,4.6033015,8.251317,0,0,0,0,0,0,0,0,0,0,0,0,0,0,0,0,0,0,0,0,0
35,2.7580836,-0.5474409,-0.12991343,0.29327875,0.47260058,-0.023810524,1.1529578,4.9241247,8.043021,0,0,0,0,0,0,0,0,0,0,0,0,0,0,0,0,0,0,0,0,0
36,2.7614543,-0.5566707,-0.119032785,0.26877767,0.2925709,-0.105835885,1.1230302,4.937293,7.995137,0,0,0,0,0,0,0,0,0,0,0,0,0,0,0,0,0,0,0,0,0
37,2.7651372,-0.5685956,-0.11240538,0.2975398,0.1242591,-0.16975175,0.98536366,5.198261,7.5581956,0,0,0,0,0,0,0,0,0,0,0,0,0,0,0,0,0,0,0,0,0
38,2.7702675,-0.5738241,-0.10567788,0.14840278,0.1242591,-0.15377279,1.0152912,5.1108723,8.088511,0,0,0,0,0,0,0,0,0,0,0,0,0,0,0,0,0,0,0,0,0
39,2.770323,-0.5734834,-0.10609994,0.3220409,0.04223374,-0.17933913,1.0464158,5.1515737,8.209418,0,0,0,0,0,0,0,0,0,0,0,0,0,0,0,0,0,0,0,0,0
40,2.7765663,-0.5876056,-0.10379357,0.36252093,-0.06322744,-0.3178235,1.036839,5.2641015,7.4540477,0,0,0,0,0,0,0,0,0,0,0,0,0,0,0,0,0,0,0,0,0
41,2.7869213,-0.5998498,-0.09784889,0.22723235,0.20415394,-0.27734345,0.6429928,5.3993735,7.780856,0,0,0,0,0,0,0,0,0,0,0,0,0,0,0,0,0,0,0,0,0
42,2.7913744,-0.609541,-0.08364848,0.28901768,0.29683194,-0.1772086,0.3568857,5.496339,7.366659,0,0,0,0,0,0,0,0,0,0,0,0,0,0,0,0,0,0,0,0,0
43,2.7914903,-0.61889863,-0.06965077,0.1718386,0.22865501,-0.15270752,0.04683657,5.629217,7.3439145,0,0,0,0,0,0,0,0,0,0,0,0,0,0,0,0,0,0,0,0,0
44,2.7911386,-0.6231203,-0.0640875,0.12922803,-0.008898953,-0.07813901,-0.07407062,5.8339214,8.059781,0,0,0,0,0,0,0,0,0,0,0,0,0,0,0,0,0,0,0,0,0
45,2.7881289,-0.635907,-0.073671855,0.35080302,-0.38600257,-0.060029514,0.15936404,5.922507,7.161955,0,0,0,0,0,0,0,0,0,0,0,0,0,0,0,0,0,0,0,0,0
46,2.7865,-0.64216757,-0.08134482,0.12816276,-0.27201927,-0.052572664,0.123451024,5.8243446,7.3977838,0,0,0,0,0,0,0,0,0,0,0,0,0,0,0,0,0,0,0,0,0
47,2.7857144,-0.6478066,-0.08861158,0.15905543,-0.25710556,-0.029136846,0.31618425,5.970391,7.694665,0,0,0,0,0,0,0,0,0,0,0,0,0,0,0,0,0,0,0,0,0
48,2.785816,-0.648567,-0.08863903,0.10153115,-0.09838116,-0.03978949,0.68369424,5.915324,7.2637086,0,0,0,0,0,0,0,0,0,0,0,0,0,0,0,0,0,0,0,0,0
49,2.788162,-0.6507059,-0.09085294,-0.060369868,0.06888293,-0.10584947,0.621445,5.772869,8.051401,0,0,0,0,0,0,0,0,0,0,0,0,0,0,0,0,0,0,0,0,0
50,2.7934158,-0.64912033,-0.08430769,0.04722184,0.18712728,-0.05791257,0.5412392,5.935675,8.081328,0,0,0,0,0,0,0,0,0,0,0,0,0,0,0,0,0,0,0,0,0
51,2.795073,-0.650224,-0.07572272,0.028047081,0.2521084,-0.030215694,0.42631754,6.0338373,8.117242,0,0,0,0,0,0,0,0,0,0,0,0,0,0,0,0,0,0,0,0,0
52,2.7964113,-0.6512478,-0.06278629,0.050417636,0.41296333,-0.056847304,0.5220856,5.546617,7.942465,0,0,0,0,0,0,0,0,0,0,0,0,0,0,0,0,0,0,0,0,0
53,2.8011088,-0.65425014,-0.04628186,0.31566846,0.1892578,-0.31677184,-0.21891981,6.091298,8.209418,0,0,0,0,0,0,0,0,0,0,0,0,0,0,0,0,0,0,0,0,0
54,2.800344,-0.6684646,-0.0453923,0.38491067,-0.06747092,-0.032346223,0.2287959,5.7956142,7.164349,0,0,0,0,0,0,0,0,0,0,0,0,0,0,0,0,0,0,0,0,0
55,2.8005066,-0.67358714,-0.04991482,0.16440092,-0.13138679,-0.0067798756,0.40836102,5.7872343,7.5378447,0,0,0,0,0,0,0,0,0,0,0,0,0,0,0,0,0,0,0,0,0
56,2.8007503,-0.676907,-0.054636408,0.13989985,-0.14203943,0.0017422399,0.31857845,5.4999304,7.862259,0,0,0,0,0,0,0,0,0,0,0,0,0,0,0,0,0,0,0,0,0
57,2.8001547,-0.68022245,-0.05709049,0.12072509,0.0070975907,0.06352758,0.70643914,5.606472,7.336732,0,0,0,0,0,0,0,0,0,0,0,0,0,0,0,0,0,0,0,0,0
58,2.8051612,-0.67959803,-0.05936034,0.04189552,-0.026990872,-0.028085165,1.2786534,5.7142115,7.46961,0,0,0,0,0,0,0,0,0,0,0,0,0,0,0,0,0,0,0,0,0
59,2.8105416,-0.6807036,-0.06070363,0.040830255,-0.05575301,-0.10904526,0.9494506,5.903353,7.3678565,0,0,0,0,0,0,0,0,0,0,0,0,0,0,0,0,0,0,0,0,0
60,2.817585,-0.6830265,-0.059986103,0.031242874,0.018815499,-0.09200103,0.89438397,6.0972834,7.080552,0,0,0,0,0,0,0,0,0,0,0,0,0,0,0,0,0,0,0,0,0
61,2.8254514,-0.6833411,-0.0581675,-0.04652143,0.012423913,-0.15378636,1.1110592,6.124817,7.3534913,0,0,0,0,0,0,0,0,0,0,0,0,0,0,0,0,0,0,0,0,0
62,2.835705,-0.6818299,-0.05474736,-0.045456164,-0.040839307,-0.20172326,0.8093898,6.127211,7.553407,0,0,0,0,0,0,0,0,0,0,0,0,0,0,0,0,0,0,0,0,0
63,2.8413782,-0.68479574,-0.052193653,0.07704925,-0.061079334,-0.13993792,0.3700538,6.2373443,7.1056914,0,0,0,0,0,0,0,0,0,0,0,0,0,0,0,0,0,0,0,0,0
64,2.8449306,-0.68658495,-0.055454243,-0.050782487,-0.18891107,-0.07282627,0.5280711,6.458808,7.1236477,0,0,0,0,0,0,0,0,0,0,0,0,0,0,0,0,0,0,0,0,0
65,2.8513916,-0.6842361,-0.06258472,-0.06569619,-0.28158906,-0.12076317,0.7423522,6.3917704,7.637204,0,0,0,0,0,0,0,0,0,0,0,0,0,0,0,0,0,0,0,0,0
66,2.8520947,-0.6846962,-0.062599994,-7.1985245E-4,-0.16974083,-0.15484817,0.47420156,6.402544,7.4755955,0,0,0,0,0,0,0,0,0,0,0,0,0,0,0,0,0,0,0,0,0
67,2.865302,-0.6824773,-0.06450707,-0.078484155,-0.13032605,-0.12502077,0.514903,6.3379006,7.7952213,0,0,0,0,0,0,0,0,0,0,0,0,0,0,0,0,0,0,0,0,0
68,2.8664284,-0.68230534,-0.06458213,-0.013503025,-0.10689023,-0.14099973,0.5460276,6.392967,7.9867578,0,0,0,0,0,0,0,0,0,0,0,0,0,0,0,0,0,0,0,0,0
69,2.8729243,-0.6846936,-0.06317418,0.09728447,-0.10902076,-0.18041451,0.3784335,6.6180224,7.5953054,0,0,0,0,0,0,0,0,0,0,0,0,0,0,0,0,0,0,0,0,0
70,2.8810675,-0.6889707,-0.060232624,0.06319601,-0.019538548,-0.2166335,0.46941316,6.6359787,7.628824,0,0,0,0,0,0,0,0,0,0,0,0,0,0,0,0,0,0,0,0,0
71,2.890178,-0.6921682,-0.054911144,0.12817714,-0.03232172,-0.18787137,0.34970307,6.5521817,7.6551604,0,0,0,0,0,0,0,0,0,0,0,0,0,0,0,0,0,0,0,0,0
72,2.897192,-0.70096344,-0.053751305,0.2826405,-0.07919335,-0.12928182,0.6669348,6.6982284,7.2218103,0,0,0,0,0,0,0,0,0,0,0,0,0,0,0,0,0,0,0,0,0
73,2.907226,-0.7146564,-0.055453897,0.3177942,-0.13139132,-0.2049156,1.0105027,6.9304657,6.7178307,0,0,0,0,0,0,0,0,0,0,0,0,0,0,0,0,0,0,0,0,0
74,2.9200156,-0.72449565,-0.054108888,0.24748676,-0.049365953,-0.20385033,1.1302128,7.145944,6.8554974,0,0,0,0,0,0,0,0,0,0,0,0,0,0,0,0,0,0,0,0,0
75,2.9336457,-0.7396463,-0.053165376,0.38384062,-0.05895333,-0.20917666,1.2355577,7.265654,6.4772134,0,0,0,0,0,0,0,0,0,0,0,0,0,0,0,0,0,0,0,0,0
76,2.9517417,-0.7521592,-0.054849904,0.28796682,-0.27626726,-0.32848626,0.8536825,7.14355,6.0390744,0,0,0,0,0,0,0,0,0,0,0,0,0,0,0,0,0,0,0,0,0
77,2.9516218,-0.7541079,-0.055540495,0.19102775,-0.36361897,-0.34766102,0.55440736,7.064541,6.186318,0,0,0,0,0,0,0,0,0,0,0,0,0,0,0,0,0,0,0,0,0
78,2.9667647,-0.7607347,-0.058918983,0.14096032,-0.50956017,-0.36364,0.4777929,6.9639845,6.805219,0,0,0,0,0,0,0,0,0,0,0,0,0,0,0,0,0,0,0,0,0
79,2.9840257,-0.7672732,-0.06412626,0.18676668,-0.5425834,-0.40092427,0.19886838,6.75928,7.136816,0,0,0,0,0,0,0,0,0,0,0,0,0,0,0,0,0,0,0,0,0
80,2.9998395,-0.77444583,-0.07045085,0.2730531,-0.5830634,-0.28800622,0.27667993,6.5964746,7.2361755,0,0,0,0,0,0,0,0,0,0,0,0,0,0,0,0,0,0,0,0,0
81,3.0109425,-0.7848455,-0.08298764,0.29861945,-0.5777371,-0.23580827,0.45624506,6.4839473,6.889016,0,0,0,0,0,0,0,0,0,0,0,0,0,0,0,0,0,0,0,0,0
82,3.0182855,-0.7910948,-0.09082801,0.17291585,-0.27733466,-0.09732229,0.6537667,6.386982,7.1332245,0,0,0,0,0,0,0,0,0,0,0,0,0,0,0,0,0,0,0,0,0
83,3.0221505,-0.7955868,-0.09414109,0.19422114,-0.13458924,-0.07708227,0.72200143,6.3438864,7.220613,0,0,0,0,0,0,0,0,0,0,0,0,0,0,0,0,0,0,0,0,0
84,3.02593,-0.80280226,-0.0943798,0.24322331,-0.12180606,-0.10690967,0.31857845,6.2145996,6.776489,0,0,0,0,0,0,0,0,0,0,0,0,0,0,0,0,0,0,0,0,0
85,3.0260572,-0.8017604,-0.09337689,0.12284842,-0.16654716,0.0017473,0.3568857,6.4839473,6.887819,0,0,0,0,0,0,0,0,0,0,0,0,0,0,0,0,0,0,0,0,0
86,3.026524,-0.80092907,-0.09271421,0.14628424,-0.1803956,0.08164213,0.42512044,6.7137904,7.0482306,0,0,0,0,0,0,0,0,0,0,0,0,0,0,0,0,0,0,0,0,0
87,3.023871,-0.8053725,-0.10251566,0.2890297,-0.19424404,0.10401268,0.8453028,7.0202484,6.8100076,0,0,0,0,0,0,0,0,0,0,0,0,0,0,0,0,0,0,0,0,0
88,3.0211844,-0.8168576,-0.11478615,0.27518123,-0.12926291,0.01133468,1.084723,7.157915,6.0019646,0,0,0,0,0,0,0,0,0,0,0,0,0,0,0,0,0,0,0,0,0
89,3.0266676,-0.8200125,-0.113235444,-0.09446552,0.034787808,-0.1782824,0.657358,6.935254,6.388628,0,0,0,0,0,0,0,0,0,0,0,0,0,0,0,0,0,0,0,0,0
90,3.0386753,-0.8123592,-0.099256165,-0.3618469,0.23718806,-0.26350355,0.27667993,6.503101,6.4532714,0,0,0,0,0,0,0,0,0,0,0,0,0,0,0,0,0,0,0,0,0
91,3.0548213,-0.79209983,-0.068915114,-0.6878178,0.59937793,-0.3487247,-0.30032268,6.0098953,7.1595607,0,0,0,0,0,0,0,0,0,0,0,0,0,0,0,0,0,0,0,0,0
92,3.0682552,-0.7709116,-0.028980808,-0.51950604,0.74425393,-0.3007878,-0.81028765,5.6759043,7.376236,0,0,0,0,0,0,0,0,0,0,0,0,0,0,0,0,0,0,0,0,0
93,3.077628,-0.75359553,-0.0048525766,-0.463047,0.33519238,-0.26350355,-1.43278,5.62802,7.138013,0,0,0,0,0,0,0,0,0,0,0,0,0,0,0,0,0,0,0,0,0
94,3.0754313,-0.73753214,-0.0073241475,-0.40978378,-0.16654716,0.0049430933,-1.1981484,5.8470893,8.028656,0,0,0,0,0,0,0,0,0,0,0,0,0,0,0,0,0,0,0,0,0
95,3.0772047,-0.7367396,-0.007895503,-0.091269724,-0.34657687,0.23610547,0.26830024,6.270863,7.4720044,0,0,0,0,0,0,0,0,0,0,0,0,0,0,0,0,0,0,0,0,0
96,3.0708606,-0.7347733,-0.0272817,-0.24679834,-0.22620198,0.078446336,0.6405986,6.669498,6.9201407,0,0,0,0,0,0,0,0,0,0,0,0,0,0,0,0,0,0,0,0,0
97,3.0744874,-0.7207839,-0.03447917,-1.0990099,-0.13885029,-0.35298574,1.2140099,8.365789,10.7077675,0,0,0,0,0,0,0,0,0,0,0,0,0,0,0,0,0,0,0,0,0
98,3.0801892,-0.6979844,-0.02165025,0.20700431,0.32347447,-0.06429909,-0.19138649,6.3558574,8.280047,0,0,0,0,0,0,0,0,0,0,0,0,0,0,0,0,0,0,0,0,0
99,3.0839765,-0.7147094,-0.014456973,0.06638461,-0.03019785,-0.05683878,-0.24884734,5.9883475,5.044284,0,0,0,0,0,0,0,0,0,0,0,0,0,0,0,0,0,0,0,0,0
100,3.0922914,-0.70108443,-0.012468883,-0.6494731,-0.09944004,-0.15164731,0.014514848,6.103269,6.328773,0,0,0,0,0,0,0,0,0,0,0,0,0,0,0,0,0,0,0,0,0
101,3.1055803,-0.67237496,-0.014178874,-0.7762396,-0.26136023,-0.26456535,0.31379005,6.0122895,8.823531,0,0,0,0,0,0,0,0,0,0,0,0,0,0,0,0,0,0,0,0,0
102,3.118176,-0.65501714,-0.010669296,-0.3586559,-0.03552417,-0.20278001,0.07796119,5.7441387,9.66629,0,0,0,0,0,0,0,0,0,0,0,0,0,0,0,0,0,0,0,0,0
103,3.118391,-0.6588947,-0.001803867,0.13456154,0.30429518,0.044361338,0.0839467,5.877017,8.092102,0,0,0,0,0,0,0,0,0,0,0,0,0,0,0,0,0,0,0,0,0
104,3.1210635,-0.65963113,-0.0017512271,0.07810252,0.29896885,-0.023815583,-0.0058358666,5.8841996,7.0470333,0,0,0,0,0,0,0,0,0,0,0,0,0,0,0,0,0,0,0,0,0
105,3.1246777,-0.6614704,0.008101195,-0.04120709,-0.038719963,-0.06855669,-0.18659809,6.054188,7.5198884,0,0,0,0,0,0,0,0,0,0,0,0,0,0,0,0,0,0,0,0,0
106,3.13081,-0.6610573,0.0039457507,3.3822146E-4,-0.13033271,0.02518658,0.3688567,6.1774893,7.455245,0,0,0,0,0,0,0,0,0,0,0,0,0,0,0,0,0,0,0,0,0
107,3.1343825,-0.66064703,-6.088622E-4,-0.10831875,0.0880465,-0.0078366175,0.44427404,6.1104517,7.622839,0,0,0,0,0,0,0,0,0,0,0,0,0,0,0,0,0,0,0,0,0
108,3.1406128,-0.6559373,0.00642285,-0.11044928,0.12852655,-0.11542833,-0.019003976,5.782446,7.7593083,0,0,0,0,0,0,0,0,0,0,0,0,0,0,0,0,0,0,0,0,0
109,-3.1377997,-0.6528128,0.009899503,-0.09020925,0.03158749,-0.031272434,-0.12075755,5.7166057,7.6755114,0,0,0,0,0,0,0,0,0,0,0,0,0,0,0,0,0,0,0,0,0
110,-3.1339715,-0.64860547,0.010101222,-0.09127452,0.01560852,-0.0323377,0.18689737,5.8339214,8.125621,0,0,0,0,0,0,0,0,0,0,0,0,0,0,0,0,0,0,0,0,0
111,-3.1273313,-0.6484475,0.011081987,0.022708774,-0.0376547,-0.09944936,0.0947206,5.888988,7.908946,0,0,0,0,0,0,0,0,0,0,0,0,0,0,0,0,0,0,0,0,0
112,-3.123006,-0.6503106,0.011814648,0.046144594,-0.06748211,-0.077078804,-0.4691139,5.9763765,7.5737576,0,0,0,0,0,0,0,0,0,0,0,0,0,0,0,0,0,0,0,0,0
113,-3.1220253,-0.6495694,0.014559104,-0.038011298,0.07419807,0.0155992,-0.3506009,5.960814,7.4325,0,0,0,0,0,0,0,0,0,0,0,0,0,0,0,0,0,0,0,0,0
114,-3.1183956,-0.6494995,0.014294346,-0.08168714,0.113612846,0.031578165,-0.01062427,6.0637646,8.041824,0,0,0,0,0,0,0,0,0,0,0,0,0,0,0,0,0,0,0,0,0
115,-3.1164544,-0.647533,0.016520817,0.1057994,-0.122875854,0.0017507621,-0.13392566,5.9787707,7.953239,0,0,0,0,0,0,0,0,0,0,0,0,0,0,0,0,0,0,0,0,0
116,-3.1137843,-0.6526048,0.011075302,0.13350347,-0.20809035,0.018789666,-0.28476036,5.7537155,7.4504566,0,0,0,0,0,0,0,0,0,0,0,0,0,0,0,0,0,0,0,0,0
117,-3.1121373,-0.65471435,0.003522509,0.04828231,-0.16121872,0.066726565,0.055216275,5.910536,7.802404,0,0,0,0,0,0,0,0,0,0,0,0,0,0,0,0,0,0,0,0,0
118,-3.1096,-0.65709484,-0.003629621,0.06319601,-0.11541235,0.061400242,0.31498715,5.9787707,7.652766,0,0,0,0,0,0,0,0,0,0,0,0,0,0,0,0,0,0,0,0,0
119,-3.1069114,-0.6589453,-0.009380784,0.036564402,-0.09517232,0.0507476,0.40955812,5.9763765,7.518691,0,0,0,0,0,0,0,0,0,0,0,0,0,0,0,0,0,0,0,0,0
120,-3.1019714,-0.65935874,-0.010572068,-0.015633555,0.0092235925,-0.015298795,0.34611177,6.103269,7.4743986,0,0,0,0,0,0,0,0,0,0,0,0,0,0,0,0,0,0,0,0,0
121,-3.0968976,-0.65743464,-0.006215011,-0.07209257,0.11575004,-0.036604084,0.13542204,6.005107,7.5139027,0,0,0,0,0,0,0,0,0,0,0,0,0,0,0,0,0,0,0,0,0
122,-3.0932317,-0.65348,-0.002470151,-0.1189642,0.079531044,-0.032343026,-0.06688801,5.898565,7.6779056,0,0,0,0,0,0,0,0,0,0,0,0,0,0,0,0,0,0,0,0,0
123,-3.091285,-0.65312564,-0.0021762387,-0.080614686,-0.0024943165,-0.01849459,-0.09801263,5.9165215,8.0166855,0,0,0,0,0,0,0,0,0,0,0,0,0,0,0,0,0,0,0,0,0
124,-3.0885952,-0.6508077,-0.0018234965,0.005671734,-0.020603811,0.030507576,-0.08364742,5.910536,7.8239517,0,0,0,0,0,0,0,0,0,0,0,0,0,0,0,0,0,0,0,0,0
125,-3.087378,-0.6514578,-0.004047402,0.0024759409,-0.008885903,0.03902969,0.17732057,5.9177184,7.703045,0,0,0,0,0,0,0,0,0,0,0,0,0,0,0,0,0,0,0,0,0
126,-3.0854683,-0.6513685,-0.005564093,0.028042287,-0.082389146,0.026246518,0.14380173,5.9919386,7.8215575,0,0,0,0,0,0,0,0,0,0,0,0,0,0,0,0,0,0,0,0,0
127,-3.0829825,-0.653441,-0.009730579,0.026977023,-0.060018595,0.0028107,0.13781624,5.9308867,7.4492593,0,0,0,0,0,0,0,0,0,0,0,0,0,0,0,0,0,0,0,0,0
128,-3.0797644,-0.65188235,-0.00846314,-0.063570455,0.09337948,-0.0057114153,0.20485388,5.9416604,7.7521257,0,0,0,0,0,0,0,0,0,0,0,0,0,0,0,0,0,0,0,0,0
129,-3.0764837,-0.65036833,-0.0052020103,-0.029481992,0.065682605,-0.0035808864,0.11507132,5.898565,7.71741,0,0,0,0,0,0,0,0,0,0,0,0,0,0,0,0,0,0,0,0,0
130,-3.0745966,-0.6489759,-0.0061562373,-0.05504834,-0.03445225,0.0070717577,-0.029777884,5.8399067,7.6216416,0,0,0,0,0,0,0,0,0,0,0,0,0,0,0,0,0,0,0,0,0
131,-3.0731955,-0.6461915,-0.005385385,-0.07954942,0.031594146,0.016659137,-0.004638766,5.9284925,7.950845,0,0,0,0,0,0,0,0,0,0,0,0,0,0,0,0,0,0,0,0,0
132,-3.071859,-0.6458753,-0.0045313314,-0.010310695,0.078462586,0.046489205,0.26710314,5.923704,7.825149,0,0,0,0,0,0,0,0,0,0,0,0,0,0,0,0,0,0,0,0,0
133,-3.0688784,-0.64617705,-0.0048717298,-0.0124412235,0.0390478,0.006009157,0.16415246,5.923704,7.6156564,0,0,0,0,0,0,0,0,0,0,0,0,0,0,0,0,0,0,0,0,0
134,-3.0669873,-0.6458535,-0.004277361,-0.02842019,-0.1196766,-0.030209834,-0.056114104,5.856666,7.613262,0,0,0,0,0,0,0,0,0,0,0,0,0,0,0,0,0,0,0,0,0
135,-3.0641546,-0.64413327,-0.0074023977,-0.06783497,-0.032324918,0.00920495,-0.0058358666,5.8722286,7.9221144,0,0,0,0,0,0,0,0,0,0,0,0,0,0,0,0,0,0,0,0,0
136,-3.0627697,-0.64196694,-0.006956344,-0.039072834,0.1018984,0.03583656,0.18570027,5.8339214,8.026262,0,0,0,0,0,0,0,0,0,0,0,0,0,0,0,0,0,0,0,0,0
137,-3.0614843,-0.6417508,-0.0037024845,0.016320916,0.062483616,0.011335479,0.13063364,5.8039937,7.7724767,0,0,0,0,0,0,0,0,0,0,0,0,0,0,0,0,0,0,0,0,0
138,-3.0592866,-0.64281446,-0.005601165,0.033365145,-0.11541554,-0.005708752,0.008529344,5.817162,7.6994534,0,0,0,0,0,0,0,0,0,0,0,0,0,0,0,0,0,0,0,0,0
139,-3.0567746,-0.6433229,-0.009569441,0.0067335363,-0.08345761,0.0049438924,0.19168578,5.8458924,7.768885,0,0,0,0,0,0,0,0,0,0,0,0,0,0,0,0,0,0,0,0,0
140,-3.0529435,-0.6432925,-0.0078044357,-0.003919108,0.0869847,-0.021687718,0.31977555,5.9189157,7.75452,0,0,0,0,0,0,0,0,0,0,0,0,0,0,0,0,0,0,0,0,0
141,-3.0513306,-0.6433499,-0.0070136082,-0.0017885789,-3.669836E-4,-0.018491926,-0.07287352,5.7980084,7.644387,0,0,0,0,0,0,0,0,0,0,0,0,0,0,0,0,0,0,0,0,0
142,-3.050769,-0.64338386,-0.0065527004,0.0024724787,-0.20596302,0.006009157,-0.12434885,5.8363156,7.7557173,0,0,0,0,0,0,0,0,0,0,0,0,0,0,0,0,0,0,0,0,0
143,-3.0500824,-0.6430519,-0.01302474,-0.00924543,-0.06002179,0.042228147,-0.011821371,5.9189157,8.180688,0,0,0,0,0,0,0,0,0,0,0,0,0,0,0,0,0,0,0,0,0
144,-3.049121,-0.64378107,-0.016070222,0.09195469,0.0688752,0.036901824,0.47061026,5.8877907,7.750929,0,0,0,0,0,0,0,0,0,0,0,0,0,0,0,0,0,0,0,0,0
145,-3.0468042,-0.64685154,-0.013215342,0.02697356,0.090180494,0.008139686,0.33294368,5.818359,7.373842,0,0,0,0,0,0,0,0,0,0,0,0,0,0,0,0,0,0,0,0,0
146,-3.044562,-0.64661294,-0.014081094,-0.042268626,-0.11221975,-0.033405628,0.15816694,5.8638487,7.628824,0,0,0,0,0,0,0,0,0,0,0,0,0,0,0,0,0,0,0,0,0
147,-3.042126,-0.6440408,-0.015739344,-0.056117065,-0.018476479,-0.014230868,0.07915829,5.8590603,8.08492,0,0,0,0,0,0,0,0,0,0,0,0,0,0,0,0,0,0,0,0,0
148,-3.0398788,-0.6437661,-0.012698574,0.0067335363,0.12959528,0.0017480989,0.21443069,5.854272,7.801207,0,0,0,0,0,0,0,0,0,0,0,0,0,0,0,0,0,0,0,0,0
149,-3.03925,-0.6444348,-0.01221948,0.021640047,-0.025939988,0.00921001,0.055216275,5.878214,7.721001,0,0,0,0,0,0,0,0,0,0,0,0,0,0,0,0,0,0,0,0,0
150,-3.0377522,-0.64512324,-0.016726645,0.021640047,-0.16442436,-0.020617394,-0.059705406,5.831527,7.786842,0,0,0,0,0,0,0,0,0,0,0,0,0,0,0,0,0,0,0,0,0
151,-3.0361936,-0.64522064,-0.016764676,0.0056610815,0.04117167,0.04329847,0.14380173,5.868637,7.718607,0,0,0,0,0,0,0,0,0,0,0,0,0,0,0,0,0,0,0,0,0
152,-3.0358999,-0.6456083,-0.015425696,-0.034818966,0.15835075,0.049690057,0.2515408,5.9284925,7.6072764,0,0,0,0,0,0,0,0,0,0,0,0,0,0,0,0,0,0,0,0,0
153,-3.035845,-0.64455205,-0.012251739,-0.034818966,-0.041918956,-0.0035731632,0.21802199,5.924901,7.71741,0,0,0,0,0,0,0,0,0,0,0,0,0,0,0,0,0,0,0,0,0
154,-3.0339897,-0.64350885,-0.015163183,-0.028427381,-0.114356935,-0.00996475,0.13183074,5.8494835,7.87423,0,0,0,0,0,0,0,0,0,0,0,0,0,0,0,0,0,0,0,0,0
155,-3.0319846,-0.6426061,-0.016944252,-0.012448414,0.028388498,-3.7736993E-4,0.18689737,5.8722286,7.9496474,0,0,0,0,0,0,0,0,0,0,0,0,0,0,0,0,0,0,0,0,0
156,-3.0310392,-0.6430178,-0.013938435,0.009922139,0.11787071,0.00921001,0.0899322,5.8279357,7.656358,0,0,0,0,0,0,0,0,0,0,0,0,0,0,0,0,0,0,0,0,0
157,-3.0307376,-0.64252007,-0.0122555345,-0.017774737,0.0124095315,0.03371109,0.14260463,5.808782,7.756914,0,0,0,0,0,0,0,0,0,0,0,0,0,0,0,0,0,0,0,0,0
158,-3.0290654,-0.6431197,-0.016677916,0.030162163,-0.13353169,-0.0067689563,0.17851767,5.8279357,7.8778214,0,0,0,0,0,0,0,0,0,0,0,0,0,0,0,0,0,0,0,0,0
159,-3.0282829,-0.64429635,-0.018608402,0.030162163,-0.023809459,0.021993183,0.14140753,5.841104,7.8071923,0,0,0,0,0,0,0,0,0,0,0,0,0,0,0,0,0,0,0,0,0
160,-3.027778,-0.6453363,-0.018492887,0.025901105,0.045432728,0.04010268,0.28745383,5.9081416,7.6874824,0,0,0,0,0,0,0,0,0,0,0,0,0,0,0,0,0,0,0,0,0
161,-3.02647,-0.6455997,-0.018719245,-0.006056827,-0.06428951,0.014536332,0.2252046,5.8458924,7.55221,0,0,0,0,0,0,0,0,0,0,0,0,0,0,0,0,0,0,0,0,0
162,-3.0256171,-0.6450335,-0.021744568,-0.053993728,-0.06322424,-0.024878452,0.24076691,5.8961706,7.8921866,0,0,0,0,0,0,0,0,0,0,0,0,0,0,0,0,0,0,0,0,0
163,-3.0237706,-0.6432746,-0.021807758,-0.016709471,0.06780328,-0.0131605435,0.16056114,5.8494835,7.8323317,0,0,0,0,0,0,0,0,0,0,0,0,0,0,0,0,0,0,0,0,0
164,-3.02324,-0.64303195,-0.018622773,-0.012448414,0.064607486,0.030515298,0.11626842,5.841104,7.741352,0,0,0,0,0,0,0,0,0,0,0,0,0,0,0,0,0,0,0,0,0
165,-3.0230024,-0.64272314,-0.019777324,0.0077916104,-0.082399,-0.014225807,0.20844519,5.8590603,7.870639,0,0,0,0,0,0,0,0,0,0,0,0,0,0,0,0,0,0,0,0,0
166,-3.0214305,-0.6431355,-0.021610526,0.02269679,-0.05470985,-0.015284946,0.14260463,5.8638487,7.917326,0,0,0,0,0,0,0,0,0,0,0,0,0,0,0,0,0,0,0,0,0
167,-3.020616,-0.6445983,-0.021863416,0.030153641,0.023054453,0.01986878,0.24555531,5.8219504,7.636007,0,0,0,0,0,0,0,0,0,0,0,0,0,0,0,0,0,0,0,0,0
168,-3.0201209,-0.6446704,-0.023004705,0.0013915016,-0.022751918,0.01986878,0.32815528,5.8734255,7.7437463,0,0,0,0,0,0,0,0,0,0,0,0,0,0,0,0,0,0,0,0,0
169,-3.0179646,-0.64510214,-0.025186785,0.009913617,-0.07921093,-0.02593759,0.26231474,5.915324,7.7940245,0,0,0,0,0,0,0,0,0,0,0,0,0,0,0,0,0,0,0,0,0
170,-3.0172896,-0.6451185,-0.025150498,0.0013915016,-0.006772951,-0.03552497,0.18091187,5.8351183,7.738958,0,0,0,0,0,0,0,0,0,0,0,0,0,0,0,0,0,0,0,0,0
171,-3.015591,-0.6449043,-0.023952592,-0.02310958,0.06673029,-0.007828096,0.13901334,5.8135705,7.7557173,0,0,0,0,0,0,0,0,0,0,0,0,0,0,0,0,0,0,0,0,0
172,-3.0153415,-0.6440164,-0.021759562,0.010978881,-0.038730886,0.04117407,0.12584522,5.886594,7.870639,0,0,0,0,0,0,0,0,0,0,0,0,0,0,0,0,0,0,0,0,0
173,-3.0160232,-0.6448233,-0.025567228,0.02269679,-0.09625516,0.018803515,0.2323872,5.832724,7.778462,0,0,0,0,0,0,0,0,0,0,0,0,0,0,0,0,0,0,0,0,0
174,-3.0157168,-0.6453796,-0.028176721,0.02056626,0.0017491642,0.026260367,0.30541036,5.8482866,7.7964187,0,0,0,0,0,0,0,0,0,0,0,0,0,0,0,0,0,0,0,0,0
175,-3.0159872,-0.6461738,-0.027956417,0.02056626,0.04329448,0.04117407,0.31139585,5.8841996,7.6575546,0,0,0,0,0,0,0,0,0,0,0,0,0,0,0,0,0,0,0,0,0
176,-3.0153835,-0.6466704,-0.029065121,-0.005000085,-0.03127403,6.940198E-4,0.38441902,5.936872,7.620445,0,0,0,0,0,0,0,0,0,0,0,0,0,0,0,0,0,0,0,0,0
177,-3.0125406,-0.6457309,-0.028852101,-0.033762224,-0.017425595,-0.044047087,0.2311901,5.856666,7.7952213,0,0,0,0,0,0,0,0,0,0,0,0,0,0,0,0,0,0,0,0,0
178,-3.0114782,-0.6446948,-0.026768753,-0.022044316,0.04329448,-0.013154418,0.12704232,5.832724,7.8359227,0,0,0,0,0,0,0,0,0,0,0,0,0,0,0,0,0,0,0,0,0
179,-3.011513,-0.6449962,-0.0272911,0.010978881,-0.0025118936,0.016672986,0.21682489,5.842301,7.8036013,0,0,0,0,0,0,0,0,0,0,0,0,0,0,0,0,0,0,0,0,0
180,-3.0106254,-0.6450179,-0.02746243,0.02056626,-0.027012976,-0.0025017734,0.27787703,5.844695,7.7461405,0,0,0,0,0,0,0,0,0,0,0,0,0,0,0,0,0,0,0,0,0
181,-3.0098448,-0.6455866,-0.02830879,-0.0018042916,-0.023817182,-0.011023889,0.20605098,5.8458924,7.744943,0,0,0,0,0,0,0,0,0,0,0,0,0,0,0,0,0,0,0,0,0
182,-3.0092106,-0.64570886,-0.028994024,0.005640575,-0.012110192,0.025203623,0.21203649,5.9057474,7.7473373,0,0,0,0,0,0,0,0,0,0,0,0,0,0,0,0,0,0,0,0,0
183,-3.0094764,-0.64620835,-0.031235391,0.013097426,-0.061112355,0.02946468,0.3688567,5.934478,7.6958623,0,0,0,0,0,0,0,0,0,0,0,0,0,0,0,0,0,0,0,0,0
184,-3.0088823,-0.64628625,-0.033889264,-0.0018162759,-0.09093976,-0.01421116,0.2275988,5.878214,7.7916303,0,0,0,0,0,0,0,0,0,0,0,0,0,0,0,0,0,0,0,0,0
185,-3.008221,-0.64655435,-0.036549,0.005640575,-0.050459713,0.013485715,0.26470894,5.841104,7.7832503,0,0,0,0,0,0,0,0,0,0,0,0,0,0,0,0,0,0,0,0,0
186,-3.008188,-0.64678764,-0.03696338,0.0035100463,0.024108797,0.027334152,0.33653498,5.922507,7.71741,0,0,0,0,0,0,0,0,0,0,0,0,0,0,0,0,0,0,0,0,0
187,-3.0081153,-0.64720625,-0.039178014,0.0120321615,-0.055786032,0.020942567,0.3544915,5.8710313,7.6922708,0,0,0,0,0,0,0,0,0,0,0,0,0,0,0,0,0,0,0,0,0
188,-3.0083091,-0.64714295,-0.04153238,0.0024447818,-0.06324288,0.011355186,0.30421326,5.865046,7.858668,0,0,0,0,0,0,0,0,0,0,0,0,0,0,0,0,0,0,0,0,0
189,-3.0076423,-0.6471103,-0.041683055,0.028011128,-0.03341548,0.011355186,0.3820248,5.866243,7.7796593,0,0,0,0,0,0,0,0,0,0,0,0,0,0,0,0,0,0,0,0,0
190,-3.007581,-0.6481547,-0.043014143,0.0258806,-0.06217762,0.028399417,0.34132338,5.8818054,7.721001,0,0,0,0,0,0,0,0,0,0,0,0,0,0,0,0,0,0,0,0,0
191,-3.0077775,-0.6491518,-0.046891216,0.03546798,-0.1197019,0.020942567,0.4777929,5.879411,7.6779056,0,0,0,0,0,0,0,0,0,0,0,0,0,0,0,0,0,0,0,0,0
192,-3.0069501,-0.64975226,-0.050716825,0.0013795175,-0.0238281,0.0049635996,0.56757545,5.9093385,7.7796593,0,0,0,0,0,0,0,0,0,0,0,0,0,0,0,0,0,0,0,0,0
193,-3.004988,-0.6500853,-0.05071447,0.010966897,0.024108797,-0.030190127,0.514903,5.9260983,7.6838913,0,0,0,0,0,0,0,0,0,0,0,0,0,0,0,0,0,0,0,0,0
194,-3.0034237,-0.65032,-0.049031895,-0.0028815402,-0.0078491345,-0.006754309,0.31977555,5.888988,7.5941086,0,0,0,0,0,0,0,0,0,0,0,0,0,0,0,0,0,0,0,0,0
195,-3.0031345,-0.64984363,-0.05097483,-0.016729977,-0.06537341,0.0017678064,0.31498715,5.8997617,7.802404,0,0,0,0,0,0,0,0,0,0,0,0,0,0,0,0,0,0,0,0,0
196,-3.0032313,-0.64952636,-0.05087734,3.14253E-4,0.018782476,0.01242045,0.34850597,5.91293,7.8514853,0,0,0,0,0,0,0,0,0,0,0,0,0,0,0,0,0,0,0,0,0
197,-3.0035076,-0.65036976,-0.050075263,0.020554278,0.030500384,0.013485715,0.41793784,5.927295,7.6419926,0,0,0,0,0,0,0,0,0,0,0,0,0,0,0,0,0,0,0,0,0
198,-3.003639,-0.65068525,-0.05219276,0.0067058397,-0.049394447,0.011355186,0.46223056,5.922507,7.679103,0,0,0,0,0,0,0,0,0,0,0,0,0,0,0,0,0,0,0,0,0
199,-3.0034535,-0.6507235,-0.052267697,-0.017803764,-0.0025305357,-3.5686357E-4,0.43350014,5.9260983,7.741352,0,0,0,0,0,0,0,0,0,0,0,0,0,0,0,0,0,0,0,0,0
200,-3.003338,-0.65026474,-0.051825464,-0.013542707,0.034753717,-3.5686357E-4,0.38322192,5.9189157,7.6659346,0,0,0,0,0,0,0,0,0,0,0,0,0,0,0,0,0,0,0,0,0
201,-3.0035756,-0.6496595,-0.050653733,-0.010346914,-0.008922122,0.01029578,0.34252048,5.9296894,7.7461405,0,0,0,0,0,0,0,0,0,0,0,0,0,0,0,0,0,0,0,0,0
202,-3.0039277,-0.64985627,-0.052198093,0.015219433,-0.060054816,0.01029578,0.40836102,5.9201126,7.730578,0,0,0,0,0,0,0,0,0,0,0,0,0,0,0,0,0,0,0,0,0
203,-3.003438,-0.6501198,-0.053726256,0.013088904,0.013448431,-0.00674845,0.55919576,5.9201126,7.7856445,0,0,0,0,0,0,0,0,0,0,0,0,0,0,0,0,0,0,0,0,0
204,-3.0025775,-0.6504972,-0.05187734,-0.0050205914,0.056059007,-0.00674845,0.4813842,5.844695,7.616853,0,0,0,0,0,0,0,0,0,0,0,0,0,0,0,0,0,0,0,0,0
205,-3.0019732,-0.6494651,-0.051447716,-0.029521674,-0.012117916,-0.012074772,0.4753987,5.866243,7.7820535,0,0,0,0,0,0,0,0,0,0,0,0,0,0,0,0,0,0,0,0,0
206,-3.0018692,-0.64897627,-0.051077094,-0.011412178,0.0070568444,-0.004617921,0.32815528,5.9069443,7.792827,0,0,0,0,0,0,0,0,0,0,0,0,0,0,0,0,0,0,0,0,0
207,-3.0024846,-0.64891887,-0.050049964,-0.003955327,0.033688456,0.009230516,0.33773208,5.8961706,7.694665,0,0,0,0,0,0,0,0,0,0,0,0,0,0,0,0,0,0,0,0,0
208,-3.002395,-0.6489845,-0.0501255,0.01202364,-0.02064003,0.032666333,0.41554365,5.898565,7.7126217,0,0,0,0,0,0,0,0,0,0,0,0,0,0,0,0,0,0,0,0,0
209,-3.0033925,-0.64958847,-0.05229013,0.009893111,-0.03768426,0.012426309,0.4777929,5.948843,7.669526,0,0,0,0,0,0,0,0,0,0,0,0,0,0,0,0,0,0,0,0,0
210,-3.0036705,-0.64983267,-0.053332593,-0.0167385,0.012383167,0.003904194,0.3808277,5.914127,7.6898766,0,0,0,0,0,0,0,0,0,0,0,0,0,0,0,0,0,0,0,0,0
211,-3.0035868,-0.64911336,-0.053103454,-0.010346914,0.001730522,0.006034723,0.45025957,5.891382,7.7832503,0,0,0,0,0,0,0,0,0,0,0,0,0,0,0,0,0,0,0,0,0
212,-3.0035753,-0.6488441,-0.053292993,-0.001824798,-0.012117916,0.008165251,0.41793784,5.8734255,7.8095865,0,0,0,0,0,0,0,0,0,0,0,0,0,0,0,0,0,0,0,0,0
213,-3.0035076,-0.6489765,-0.05458468,0.014154169,-0.03448847,0.0049694586,0.45385087,5.8722286,7.7353663,0,0,0,0,0,0,0,0,0,0,0,0,0,0,0,0,0,0,0,0,0
214,-3.0033658,-0.64926994,-0.055650443,0.016284697,-0.018509502,0.01029578,0.4861726,5.878214,7.7485347,0,0,0,0,0,0,0,0,0,0,0,0,0,0,0,0,0,0,0,0,0
215,-3.0026853,-0.6500208,-0.056099124,0.009893111,0.008122109,0.0028389296,0.56398416,5.9260983,7.6048822,0,0,0,0,0,0,0,0,0,0,0,0,0,0,0,0,0,0,0,0,0
216,-3.0012126,-0.64893603,-0.054755878,-0.036978524,0.02516634,-0.022727417,0.47061026,5.903353,7.6802998,0,0,0,0,0,0,0,0,0,0,0,0,0,0,0,0,0,0,0,0,0
217,-3.000833,-0.6477731,-0.05420328,-0.0316522,0.0027957866,-0.011009508,0.3736451,5.8722286,7.849091,0,0,0,0,0,0,0,0,0,0,0,0,0,0,0,0,0,0,0,0,0
218,-3.0009053,-0.64767593,-0.05411363,0.009893111,-0.016378973,0.0070999875,0.39040452,5.8841996,7.8454995,0,0,0,0,0,0,0,0,0,0,0,0,0,0,0,0,0,0,0,0,0
219,-3.0008872,-0.6483428,-0.054937292,0.013088904,-4.000068E-4,0.008165251,0.44906247,5.9189157,7.6659346,0,0,0,0,0,0,0,0,0,0,0,0,0,0,0,0,0,0,0,0,0
220,-3.0011969,-0.6484459,-0.054580607,-0.008216385,-0.005726329,0.012426309,0.35209727,5.903353,7.7317753,0,0,0,0,0,0,0,0,0,0,0,0,0,0,0,0,0,0,0,0,0
221,-3.001648,-0.64834553,-0.05622733,0.019480491,-0.08242537,0.02201369,0.45744216,5.934478,7.766491,0,0,0,0,0,0,0,0,0,0,0,0,0,0,0,0,0,0,0,0,0
222,-3.0016088,-0.64915735,-0.058923885,0.018415226,-0.028096883,-0.001422128,0.4765958,5.936872,7.697059,0,0,0,0,0,0,0,0,0,0,0,0,0,0,0,0,0,0,0,0,0
223,-3.0013022,-0.6492552,-0.05824553,-0.006085856,0.02729687,0.003904194,0.44427404,5.850681,7.6551604,0,0,0,0,0,0,0,0,0,0,0,0,0,0,0,0,0,0,0,0,0
224,-3.0013716,-0.6487231,-0.058754385,-0.012477443,-0.019574767,0.012426309,0.5364508,5.8949733,7.7629,0,0,0,0,0,0,0,0,0,0,0,0,0,0,0,0,0,0,0,0,0
225,-3.0007737,-0.6490026,-0.0599685,0.0045667887,-0.017444238,0.0017736653,0.5484218,5.902156,7.7126217,0,0,0,0,0,0,0,0,0,0,0,0,0,0,0,0,0,0,0,0,0
226,-3.0005765,-0.6488331,-0.059161954,-0.006085856,0.02729687,0.003904194,0.46462476,5.890185,7.7198043,0,0,0,0,0,0,0,0,0,0,0,0,0,0,0,0,0,0,0,0,0
227,-3.0004144,-0.648793,-0.059097286,0.005632053,-0.0025305357,0.016687367,0.43589434,5.888988,7.7856445,0,0,0,0,0,0,0,0,0,0,0,0,0,0,0,0,0,0,0,0,0
228,-3.000783,-0.64910257,-0.060000494,0.017349962,-0.04940217,0.019883161,0.4801871,5.924901,7.7245927,0,0,0,0,0,0,0,0,0,0,0,0,0,0,0,0,0,0,0,0,0
229,-3.000518,-0.6497147,-0.062363833,0.01202364,-0.046206377,-0.008878979,0.56637836,5.9380693,7.7221985,0,0,0,0,0,0,0,0,0,0,0,0,0,0,0,0,0,0,0,0,0
230,-2.9993694,-0.6502757,-0.06309427,-0.017803764,0.037949514,-0.009944243,0.5232827,5.888988,7.620445,0,0,0,0,0,0,0,0,0,0,0,0,0,0,0,0,0,0,0,0,0
231,-2.9987755,-0.6490389,-0.060490686,-0.041239582,0.06138533,0.003904194,0.44427404,5.8841996,7.7245927,0,0,0,0,0,0,0,0,0,0,0,0,0,0,0,0,0,0,0,0,0
232,-2.9996548,-0.64802665,-0.060011417,-0.0060882526,-0.040882185,-0.0056813215,0.42272624,5.910536,7.888595,0,0,0,0,0,0,0,0,0,0,0,0,0,0,0,0,0,0,0,0,0
233,-2.999831,-0.64880395,-0.06139935,0.034391794,-0.025968483,-0.0035507926,0.44427404,5.865046,7.8083897,0,0,0,0,0,0,0,0,0,0,0,0,0,0,0,0,0,0,0,0,0
234,-3.0008726,-0.6497862,-0.061487302,0.022673886,0.021968415,0.025211347,0.5316624,5.8853965,7.5976996,0,0,0,0,0,0,0,0,0,0,0,0,0,0,0,0,0,0,0,0,0
235,-3.0007164,-0.6497424,-0.062486127,-0.005022988,-0.020642161,0.0017755295,0.58313775,5.9380693,7.6922708,0,0,0,0,0,0,0,0,0,0,0,0,0,0,0,0,0,0,0,0,0
236,-2.99991,-0.6493876,-0.062829286,-0.011414574,-0.029164277,-0.024856081,0.49335518,5.8818054,7.750929,0,0,0,0,0,0,0,0,0,0,0,0,0,0,0,0,0,0,0,0,0
237,-2.999941,-0.6493379,-0.062992916,-0.009284046,0.02516421,0.0017755295,0.550816,5.8638487,7.7437463,0,0,0,0,0,0,0,0,0,0,0,0,0,0,0,0,0,0,0,0,0
238,-3.0001407,-0.6490342,-0.061929695,-0.015675632,0.036882117,-0.009942379,0.5005378,5.8698344,7.7437463,0,0,0,0,0,0,0,0,0,0,0,0,0,0,0,0,0,0,0,0,0
239,-3.0005147,-0.64849126,-0.06098987,-0.012479839,-0.045143243,-0.0024855281,0.3700538,5.890185,7.7640967,0,0,0,0,0,0,0,0,0,0,0,0,0,0,0,0,0,0,0,0,0
240,-3.0009634,-0.6483693,-0.06278319,-0.0018271948,-0.019576898,0.012428174,0.45863926,5.9380693,7.7844477,0,0,0,0,0,0,0,0,0,0,0,0,0,0,0,0,0,0,0,0,0
241,-3.0014482,-0.6486176,-0.062398896,0.006694921,0.05712214,7.1026507E-4,0.5496189,5.935675,7.685088,0,0,0,0,0,0,0,0,0,0,0,0,0,0,0,0,0,0,0,0,0
242,-3.001089,-0.64869386,-0.061038233,-0.009284046,0.011315771,-0.017399231,0.5376479,5.890185,7.6551604,0,0,0,0,0,0,0,0,0,0,0,0,0,0,0,0,0,0,0,0,0
243,-3.0004869,-0.64816666,-0.061554275,-0.013545103,-0.044077978,-0.017399231,0.44187984,5.8734255,7.8155723,0,0,0,0,0,0,0,0,0,0,0,0,0,0,0,0,0,0,0,0,0
244,-3.001042,-0.64825904,-0.061866343,0.0013685984,-0.0014674017,0.0017755295,0.41913494,5.890185,7.756914,0,0,0,0,0,0,0,0,0,0,0,0,0,0,0,0,0,0,0,0,0
245,-3.0005536,-0.6490641,-0.061320893,0.022673886,0.014511565,-0.011007643,0.5484218,5.9284925,7.7760677,0,0,0,0,0,0,0,0,0,0,0,0,0,0,0,0,0,0,0,0,0
246,-3.0006585,-0.6491961,-0.06136685,0.019478094,0.014511565,-0.012072908,0.4837784,5.853075,7.5941086,0,0,0,0,0,0,0,0,0,0,0,0,0,0,0,0,0,0,0,0,0
247,-3.0007536,-0.6495739,-0.06081415,-0.007153517,-0.0344906,-0.0035507926,0.44906247,5.8818054,7.7916303,0,0,0,0,0,0,0,0,0,0,0,0,0,0,0,0,0,0,0,0,0
248,-3.000949,-0.6493496,-0.06176412,0.012021243,-0.019576898,0.012428174,0.43589434,5.8997617,7.75452,0,0,0,0,0,0,0,0,0,0,0,0,0,0,0,0,0,0,0,0,0
249,-3.000873,-0.64986503,-0.0625025,0.00135981,0.035809662,0.0060435114,0.6382044,5.936872,7.6779056,0,0,0,0,0,0,0,0,0,0,0,0,0,0,0,0,0,0,0,0,0
250,-3.0004349,-0.6496249,-0.060782045,-0.011423363,0.03048334,-0.012065984,0.5232827,5.8830023,7.6575546,0,0,0,0,0,0,0,0,0,0,0,0,0,0,0,0,0,0,0,0,0
251,-3.000422,-0.6491371,-0.06072507,-0.022076007,-0.029171467,-0.014196512,0.40237552,5.8638487,7.7365637,0,0,0,0,0,0,0,0,0,0,0,0,0,0,0,0,0,0,0,0,0
252,-3.0007195,-0.64801174,-0.05973317,-0.025271801,0.044331778,0.002847718,0.42272624,5.903353,7.9029603,0,0,0,0,0,0,0,0,0,0,0,0,0,0,0,0,0,0,0,0,0
253,-3.0013053,-0.6483401,-0.059057157,0.013077719,0.016634904,0.009239305,0.46342766,5.91293,7.6958623,0,0,0,0,0,0,0,0,0,0,0,0,0,0,0,0,0,0,0,0,0
254,-3.0017893,-0.64869374,-0.060181763,0.0077513964,-0.020649351,0.011369834,0.5137059,5.9201126,7.6994534,0,0,0,0,0,0,0,0,0,0,0,0,0,0,0,0,0,0,0,0,0
255,-3.0017753,-0.64872146,-0.06142602,-7.707188E-4,-0.038758848,-0.0035438684,0.4873697,5.8841996,7.70903,0,0,0,0,0,0,0,0,0,0,0,0,0,0,0,0,0,0,0,0,0
256,-3.002,-0.648758,-0.061409134,-0.012488628,0.005982259,-0.009935455,0.47180736,5.9308867,7.778462,0,0,0,0,0,0,0,0,0,0,0,0,0,0,0,0,0,0,0,0,0
257,-3.0018008,-0.6483441,-0.060647182,-0.013553892,0.03261387,-0.0035438684,0.45145667,5.886594,7.715016,0,0,0,0,0,0,0,0,0,0,0,0,0,0,0,0,0,0,0,0,0
258,-3.0020657,-0.64804894,-0.059747286,-0.0029012477,-0.02277988,-0.005674397,0.45025957,5.888988,7.7245927,0,0,0,0,0,0,0,0,0,0,0,0,0,0,0,0,0,0,0,0,0
259,-3.0020044,-0.647895,-0.06072414,2.945456E-4,-0.029171467,-0.008870191,0.44786537,5.8734255,7.7796593,0,0,0,0,0,0,0,0,0,0,0,0,0,0,0,0,0,0,0,0,0
260,-3.0021157,-0.6478987,-0.060823806,0.0024250746,0.01343911,0.0060435114,0.502932,5.877017,7.7856445,0,0,0,0,0,0,0,0,0,0,0,0,0,0,0,0,0,0,0,0,0
261,-3.0027266,-0.6485786,-0.060335334,0.015208248,0.012373845,0.007108776,0.44427404,5.8734255,7.650372,0,0,0,0,0,0,0,0,0,0,0,0,0,0,0,0,0,0,0,0,0
262,-3.003401,-0.64859015,-0.061653707,2.945456E-4,-0.038758848,0.004978247,0.47899,5.878214,7.7221985,0,0,0,0,0,0,0,0,0,0,0,0,0,0,0,0,0,0,0,0,0
263,-3.0035973,-0.6483047,-0.0618612,-0.0050317766,0.011308581,7.171893E-4,0.5196914,5.91293,7.850288,0,0,0,0,0,0,0,0,0,0,0,0,0,0,0,0,0,0,0,0,0
264,-3.0038164,-0.6486767,-0.060242333,0.0077513964,0.04752757,-0.0014133396,0.46342766,5.902156,7.685088,0,0,0,0,0,0,0,0,0,0,0,0,0,0,0,0,0,0,0,0,0
265,-3.0042973,-0.64881814,-0.060099415,-0.0071623055,0.008112787,0.007108776,0.40716392,5.902156,7.661146,0,0,0,0,0,0,0,0,0,0,0,0,0,0,0,0,0,0,0,0,0
266,-3.004872,-0.64843625,-0.06047667,-0.0029161614,-0.056880858,-3.3662355E-4,0.46582186,5.902156,7.7916303,0,0,0,0,0,0,0,0,0,0,0,0,0,0,0,0,0,0,0,0,0
267,-3.0049307,-0.6484437,-0.06224625,-7.856325E-4,0.0070350063,0.0017939053,0.49574938,5.8937764,7.7676883,0,0,0,0,0,0,0,0,0,0,0,0,0,0,0,0,0,0,0,0,0
268,-3.0050042,-0.6485164,-0.06167379,0.0045406898,0.01981818,0.009250756,0.5376479,5.8830023,7.71741,0,0,0,0,0,0,0,0,0,0,0,0,0,0,0,0,0,0,0,0,0
269,-3.0050611,-0.6487337,-0.062113795,0.0045406898,-0.03983663,-0.0077934745,0.502932,5.8841996,7.7233953,0,0,0,0,0,0,0,0,0,0,0,0,0,0,0,0,0,0,0,0,0
270,-3.0050793,-0.64882666,-0.06390218,0.0066712187,-0.03344504,-0.008858739,0.45744216,5.891382,7.786842,0,0,0,0,0,0,0,0,0,0,0,0,0,0,0,0,0,0,0,0,0
271,-3.0054593,-0.6489064,-0.06331568,-7.856325E-4,0.040058203,0.011381285,0.5041291,5.898565,7.721001,0,0,0,0,0,0,0,0,0,0,0,0,0,0,0,0,0,0,0,0,0
272,-3.0054893,-0.6485173,-0.06255742,-0.015699334,0.0251445,7.286409E-4,0.5137059,5.8494835,7.6767087,0,0,0,0,0,0,0,0,0,0,0,0,0,0,0,0,0,0,0,0,0
273,-3.0052724,-0.64829767,-0.063208275,-0.0071772193,-0.02811872,-0.009924004,0.4801871,5.892579,7.7640967,0,0,0,0,0,0,0,0,0,0,0,0,0,0,0,0,0,0,0,0,0
274,-3.0051224,-0.6481731,-0.06295903,-0.006111955,6.4341974E-4,-0.0077934745,0.4813842,5.924901,7.7581115,0,0,0,0,0,0,0,0,0,0,0,0,0,0,0,0,0,0,0,0,0
275,-3.0052536,-0.6482653,-0.06296784,-7.856325E-4,0.0581677,0.003924434,0.4885668,5.8961706,7.6958623,0,0,0,0,0,0,0,0,0,0,0,0,0,0,0,0,0,0,0,0,0
276,-3.0059187,-0.64824545,-0.060840987,-0.015699334,0.024079237,-0.004597681,0.39040452,5.886594,7.6958623,0,0,0,0,0,0,0,0,0,0,0,0,0,0,0,0,0,0,0,0,0
277,-3.0061486,-0.647708,-0.060831744,0.0066712187,-0.06859877,0.0049896985,0.46582186,5.915324,7.814375,0,0,0,0,0,0,0,0,0,0,0,0,0,0,0,0,0,0,0,0,0
278,-3.0061731,-0.6482805,-0.06330234,0.009867012,-0.01853134,0.0049896985,0.49694648,5.866243,7.7401547,0,0,0,0,0,0,0,0,0,0,0,0,0,0,0,0,0,0,0,0,0
279,-3.0062933,-0.64858013,-0.06248815,-0.0071772193,0.06775508,0.010316021,0.55440736,5.8853965,7.6156564,0,0,0,0,0,0,0,0,0,0,0,0,0,0,0,0,0,0,0,0,0
280,-3.0064805,-0.6479273,-0.061004873,-0.017829863,0.0155571215,7.286409E-4,0.49934068,5.8698344,7.7497315,0,0,0,0,0,0,0,0,0,0,0,0,0,0,0,0,0,0,0,0,0
281,-3.0067444,-0.6477982,-0.062103666,0.0066712187,-0.041967157,-0.003532417,0.42392334,5.8578634,7.849091,0,0,0,0,0,0,0,0,0,0,0,0,0,0,0,0,0,0,0,0,0
282,-3.0072122,-0.6482568,-0.061752245,0.015193334,0.011296064,0.0028591696,0.45624506,5.8961706,7.8059955,0,0,0,0,0,0,0,0,0,0,0,0,0,0,0,0,0,0,0,0,0
283,-3.0077238,-0.6489954,-0.062424865,0.019461848,-0.006807306,0.012440691,0.514903,5.8830023,7.649175,0,0,0,0,0,0,0,0,0,0,0,0,0,0,0,0,0,0,0,0,0
284,-3.0077229,-0.64906764,-0.062493548,-0.010365555,-0.004676777,-0.0077993334,0.5089175,5.910536,7.7162127,0,0,0,0,0,0,0,0,0,0,0,0,0,0,0,0,0,0,0,0,0
285,-3.0077143,-0.648587,-0.062307134,-0.013561348,0.0049106027,-0.0035382758,0.47061026,5.8937764,7.7353663,0,0,0,0,0,0,0,0,0,0,0,0,0,0,0,0,0,0,0,0,0
286,-3.0078588,-0.6481765,-0.0619716,-0.0114308195,-0.00787257,-0.0024730114,0.45504797,5.8758197,7.774871,0,0,0,0,0,0,0,0,0,0,0,0,0,0,0,0,0,0,0,0,0
287,-3.007771,-0.6477823,-0.061970204,-0.0018434401,0.025150627,-0.009929863,0.49455228,5.8722286,7.792827,0,0,0,0,0,0,0,0,0,0,0,0,0,0,0,0,0,0,0,0,0
288,-3.0078764,-0.6478897,-0.06015066,2.8708877E-4,0.023020098,-0.00460354,0.40596682,5.8818054,7.6994534,0,0,0,0,0,0,0,0,0,0,0,0,0,0,0,0,0,0,0,0,0
289,-3.008315,-0.64792293,-0.060692884,-7.7817566E-4,-0.052613676,-0.0035382758,0.43469724,5.9189157,7.7593083,0,0,0,0,0,0,0,0,0,0,0,0,0,0,0,0,0,0,0,0,0
290,-3.0085247,-0.6478383,-0.061513282,0.0013523531,-0.00787257,-3.4248253E-4,0.45265377,5.879411,7.838317,0,0,0,0,0,0,0,0,0,0,0,0,0,0,0,0,0,0,0,0,0
291,-3.0087237,-0.6483869,-0.06101996,0.012004998,0.025150627,0.0028533107,0.4921581,5.879411,7.6838913,0,0,0,0,0,0,0,0,0,0,0,0,0,0,0,0,0,0,0,0,0
292,-3.0090284,-0.6480613,-0.060280103,-0.012496084,0.024085362,0.0028533107,0.46941316,5.886594,7.682694,0,0,0,0,0,0,0,0,0,0,0,0,0,0,0,0,0,0,0,0,0
293,-3.009778,-0.64813256,-0.06218212,0.0024176177,-0.052613676,0.009244897,0.44427404,5.890185,7.7581115,0,0,0,0,0,0,0,0,0,0,0,0,0,0,0,0,0,0,0,0,0
294,-3.0101697,-0.6481501,-0.062053327,-0.0018434401,0.0017148094,0.013505955,0.43230304,5.886594,7.7473373,0,0,0,0,0,0,0,0,0,0,0,0,0,0,0,0,0,0,0,0,0
295,-3.0108585,-0.6480365,-0.06185554,0.003482882,0.034738008,0.017767012,0.4873697,5.886594,7.7221985,0,0,0,0,0,0,0,0,0,0,0,0,0,0,0,0,0,0,0,0,0
296,-3.0116208,-0.6482609,-0.062240906,0.009874469,-0.039830502,0.008179633,0.55321026,5.886594,7.744943,0,0,0,0,0,0,0,0,0,0,0,0,0,0,0,0,0,0,0,0,0
297,-3.0116591,-0.6486203,-0.06360895,0.010939733,-0.028112594,-0.0077993334,0.4777929,5.879411,7.7245927,0,0,0,0,0,0,0,0,0,0,0,0,0,0,0,0,0,0,0,0,0
298,-3.0111537,-0.6491503,-0.0635559,-0.0018434401,0.02088957,-0.006734069,0.5208885,5.915324,7.667132,0,0,0,0,0,0,0,0,0,0,0,0,0,0,0,0,0,0,0,0,0
299,-3.01071,-0.64863604,-0.0625776,-0.00824994,0.00596335,-0.014179202,0.526874,5.8758197,7.768885,0,0,0,0,0,0,0,0,0,0,0,0,0,0,0,0,0,0,0,0,0
300,-3.0103915,-0.6488832,-0.06256328,0.005598497,-0.0153419385,-0.01630973,0.41674075,5.880608,7.7257895,0,0,0,0,0,0,0,0,0,0,0,0,0,0,0,0,0,0,0,0,0
301,-3.0103512,-0.64887965,-0.06167773,2.7217506E-4,0.016615994,-0.0077876155,0.40117842,5.922507,7.7736735,0,0,0,0,0,0,0,0,0,0,0,0,0,0,0,0,0,0,0,0,0
302,-3.011077,-0.6488214,-0.06108819,-0.0018583538,0.02513811,0.012452409,0.44906247,5.874623,7.7102275,0,0,0,0,0,0,0,0,0,0,0,0,0,0,0,0,0,0,0,0,0
303,-3.0112367,-0.64884484,-0.061057404,0.008794291,-0.0345167,0.015648201,0.46103346,5.888988,7.732972,0,0,0,0,0,0,0,0,0,0,0,0,0,0,0,0,0,0,0,0,0
304,-3.0121126,-0.64909756,-0.06288368,0.008794291,-0.01321141,0.012452409,0.4861726,5.8698344,7.750929,0,0,0,0,0,0,0,0,0,0,0,0,0,0,0,0,0,0,0,0,0
305,-3.0122492,-0.6491818,-0.06365674,-0.0029236183,0.051769722,0.018843995,0.6298247,5.8722286,7.7676883,0,0,0,0,0,0,0,0,0,0,0,0,0,0,0,0,0,0,0,0,0
306,-3.0126324,-0.6492568,-0.062099516,-0.0061194114,0.037921283,0.012452409,0.5017349,5.874623,7.652766,0,0,0,0,0,0,0,0,0,0,0,0,0,0,0,0,0,0,0,0,0
307,-3.0134957,-0.649038,-0.062375806,-0.009315205,-0.028125111,0.008191351,0.41913494,5.923704,7.726987,0,0,0,0,0,0,0,0,0,0,0,0,0,0,0,0,0,0,0,0,0
308,-3.0138373,-0.6486255,-0.062647924,-0.011445734,0.011289672,7.3449983E-4,0.41314942,5.9428577,7.7640967,0,0,0,0,0,0,0,0,0,0,0,0,0,0,0,0,0,0,0,0,0
309,-3.013908,-0.64842635,-0.061511748,-0.0039888825,0.028333902,-3.307646E-4,0.4885668,5.868637,7.6922708,0,0,0,0,0,0,0,0,0,0,0,0,0,0,0,0,0,0,0,0,0
310,-3.0133867,-0.64821935,-0.061745152,-0.005054147,-0.01321141,-0.006722351,0.5280711,5.843498,7.741352,0,0,0,0,0,0,0,0,0,0,0,0,0,0,0,0,0,0,0,0,0
311,-3.0127273,-0.6482314,-0.06180115,0.0045332327,-0.006819823,-0.013113937,0.5436334,5.8470893,7.8335285,0,0,0,0,0,0,0,0,0,0,0,0,0,0,0,0,0,0,0,0,0
312,-3.0125601,-0.64876044,-0.061383627,0.015185877,0.00809388,-0.006722351,0.4753987,5.8758197,7.729381,0,0,0,0,0,0,0,0,0,0,0,0,0,0,0,0,0,0,0,0,0
313,-3.01222,-0.6489777,-0.06158456,0.008794291,0.009159144,-0.00885288,0.5448305,5.9201126,7.614459,0,0,0,0,0,0,0,0,0,0,0,0,0,0,0,0,0,0,0,0,0
314,-3.0119221,-0.64921814,-0.06085319,-0.02955523,0.013420201,-0.023766583,0.43469724,5.9081416,7.6659346,0,0,0,0,0,0,0,0,0,0,0,0,0,0,0,0,0,0,0,0,0
315,-3.0115328,-0.64815015,-0.05982936,-0.030620493,-0.018537732,-0.014179202,0.34132338,5.9308867,7.810784,0,0,0,0,0,0,0,0,0,0,0,0,0,0,0,0,0,0,0,0,0
316,-3.0118027,-0.64735335,-0.059920687,-7.930894E-4,0.002767557,0.0071260864,0.3748422,5.8961706,7.8155723,0,0,0,0,0,0,0,0,0,0,0,0,0,0,0,0,0,0,0,0,0
317,-3.0123165,-0.6476291,-0.05980497,0.007729026,0.0017022926,0.0049955575,0.46821606,5.866243,7.7126217,0,0,0,0,0,0,0,0,0,0,0,0,0,0,0,0,0,0,0,0,0
318,-3.0126138,-0.64776087,-0.061262354,0.008794291,-0.053691458,0.006060822,0.5017349,5.829133,7.7198043,0,0,0,0,0,0,0,0,0,0,0,0,0,0,0,0,0,0,0,0,0
319,-3.0128806,-0.64803725,-0.06317748,0.010924819,-0.04197355,0.008191351,0.5292682,5.8518777,7.7557173,0,0,0,0,0,0,0,0,0,0,0,0,0,0,0,0,0,0,0,0,0
320,-3.0130353,-0.6484558,-0.06321254,0.0066637616,0.021942317,0.008191351,0.5352537,5.922507,7.6838913,0,0,0,0,0,0,0,0,0,0,0,0,0,0,0,0,0,0,0,0,0
321,-3.0132284,-0.6481557,-0.061572652,-0.013576263,0.048573926,0.0028650286,0.44906247,5.90455,7.6575546,0,0,0,0,0,0,0,0,0,0,0,0,0,0,0,0,0,0,0,0,0
322,-3.0136435,-0.64815545,-0.061358638,-0.013576263,-0.0494304,-0.010983408,0.39519292,5.8853965,7.7617025,0,0,0,0,0,0,0,0,0,0,0,0,0,0,0,0,0,0,0,0,0
323,-3.0134523,-0.6476368,-0.062670626,-0.007184676,-0.028125111,0.0049955575,0.41195232,5.8818054,7.83712,0,0,0,0,0,0,0,0,0,0,0,0,0,0,0,0,0,0,0,0,0
324,-3.0136306,-0.6475124,-0.063543655,0.005598497,0.020877052,0.019909259,0.550816,5.8602576,7.7245927,0,0,0,0,0,0,0,0,0,0,0,0,0,0,0,0,0,0,0,0,0
325,-3.0143006,-0.6477157,-0.06367126,0.007729026,-0.0153419385,0.011387144,0.5137059,5.850681,7.681497,0,0,0,0,0,0,0,0,0,0,0,0,0,0,0,0,0,0,0,0,0
326,-3.0144117,-0.64761025,-0.06489855,-0.014641527,-0.018537732,0.0017997642,0.5077204,5.850681,7.7736735,0,0,0,0,0,0,0,0,0,0,0,0,0,0,0,0,0,0,0,0,0
327,-3.0146163,-0.6470825,-0.06443269,-0.007184676,0.036856018,0.008191351,0.5053262,5.886594,7.7916303,0,0,0,0,0,0,0,0,0,0,0,0,0,0,0,0,0,0,0,0,0
328,-3.014982,-0.64708936,-0.06336802,-0.0018583538,0.020877052,0.011387144,0.49934068,5.879411,7.691074,0,0,0,0,0,0,0,0,0,0,0,0,0,0,0,0,0,0,0,0,0
329,-3.015007,-0.64710057,-0.06531768,-0.0039888825,-0.06647463,-0.004591822,0.47061026,5.9177184,7.721001,0,0,0,0,0,0,0,0,0,0,0,0,0,0,0,0,0,0,0,0,0
330,-3.0149589,-0.6468719,-0.06516061,-0.007184676,-0.0036240297,-0.004591822,0.45145667,5.9057474,7.804798,0,0,0,0,0,0,0,0,0,0,0,0,0,0,0,0,0,0,0,0,0
331,-3.0152652,-0.6470994,-0.06519465,0.005598497,0.00596335,0.009256615,0.5017349,5.8961706,7.738958,0,0,0,0,0,0,0,0,0,0,0,0,0,0,0,0,0,0,0,0,0
332,-3.0149806,-0.64709604,-0.06531603,0.007729026,-0.036647227,-0.006722351,0.550816,5.843498,7.7162127,0,0,0,0,0,0,0,0,0,0,0,0,0,0,0,0,0,0,0,0,0
333,-3.0146835,-0.64713943,-0.06628181,-0.011452125,-0.0036290896,-3.259709E-4,0.5292682,5.8578634,7.768885,0,0,0,0,0,0,0,0,0,0,0,0,0,0,0,0,0,0,0,0,0
334,-3.0143242,-0.6468142,-0.066013314,-0.015713183,0.030459372,-3.259709E-4,0.5472247,5.8937764,7.718607,0,0,0,0,0,0,0,0,0,0,0,0,0,0,0,0,0,0,0,0,0
335,-3.0147862,-0.64647853,-0.06462655,-0.0093215965,-0.014281734,0.018848788,0.3784335,5.888988,7.697059,0,0,0,0,0,0,0,0,0,0,0,0,0,0,0,0,0,0,0,0,0
336,-3.0155337,-0.64638895,-0.06726352,-0.0018647454,-0.07606707,0.009261409,0.47899,5.8853965,7.8059955,0,0,0,0,0,0,0,0,0,0,0,0,0,0,0,0,0,0,0,0,0
337,-3.015957,-0.6462686,-0.06876675,0.011983692,-0.02067332,0.013522467,0.58672905,5.903353,7.804798,0,0,0,0,0,0,0,0,0,0,0,0,0,0,0,0,0,0,0,0,0
338,-3.0159101,-0.6468508,-0.06936622,0.011983692,-0.007890147,0.010326673,0.57475805,5.8830023,7.6647377,0,0,0,0,0,0,0,0,0,0,0,0,0,0,0,0,0,0,0,0,0
339,-3.0156276,-0.64644027,-0.07030617,-0.021039505,-0.023869114,-0.0013912354,0.56757545,5.8841996,7.706636,0,0,0,0,0,0,0,0,0,0,0,0,0,0,0,0,0,0,0,0,0
340,-3.0155282,-0.6464248,-0.070212565,-0.021039505,-0.016412262,-0.008848086,0.514903,5.915324,7.834726,0,0,0,0,0,0,0,0,0,0,0,0,0,0,0,0,0,0,0,0,0
341,-3.014922,-0.6459539,-0.07046647,0.004526841,-0.04197861,-0.0013912354,0.5053262,5.826739,7.6898766,0,0,0,0,0,0,0,0,0,0,0,0,0,0,0,0,0,0,0,0,0
342,-3.0146842,-0.6461169,-0.072115295,0.008787899,-0.11015553,0.025240375,0.6238392,5.829133,7.780856,0,0,0,0,0,0,0,0,0,0,0,0,0,0,0,0,0,0,0,0,0
343,-3.014668,-0.64635795,-0.07688761,0.008787899,-0.06541443,0.005000351,0.71841013,5.8578634,7.8191633,0,0,0,0,0,0,0,0,0,0,0,0,0,0,0,0,0,0,0,0,0
344,-3.0142865,-0.6467967,-0.07808741,0.015179485,0.01554567,0.009261409,0.621445,5.8722286,7.6096706,0,0,0,0,0,0,0,0,0,0,0,0,0,0,0,0,0,0,0,0,0
345,-3.0139132,-0.64670277,-0.07735988,-0.033822678,0.035785694,0.009261409,0.6585551,5.935675,7.636007,0,0,0,0,0,0,0,0,0,0,0,0,0,0,0,0,0,0,0,0,0
346,-3.0130925,-0.6458161,-0.07766617,-0.02956162,-0.046239667,-0.015239673,0.59630585,5.9057474,7.750929,0,0,0,0,0,0,0,0,0,0,0,0,0,0,0,0,0,0,0,0,0
347,-3.0118582,-0.644905,-0.07846784,-0.033822678,-0.043043874,-0.025892317,0.4837784,5.880608,7.768885,0,0,0,0,0,0,0,0,0,0,0,0,0,0,0,0,0,0,0,0,0
348,-3.011646,-0.6442079,-0.07744662,-0.016778447,0.02513305,0.001804558,0.5137059,5.874623,7.7712793,0,0,0,0,0,0,0,0,0,0,0,0,0,0,0,0,0,0,0,0,0
349,-3.011105,-0.6443643,-0.07743596,-0.010386861,-0.03452176,0.018848788,0.59032035,5.865046,7.659949,0,0,0,0,0,0,0,0,0,0,0,0,0,0,0,0,0,0,0,0,0
350,-3.0111392,-0.64343977,-0.08118525,-0.013582654,-0.050500724,-0.0013912354,0.633416,5.83871,7.8550763,0,0,0,0,0,0,0,0,0,0,0,0,0,0,0,0,0,0,0,0,0
351,-3.0105126,-0.64350003,-0.0811875,2.6578348E-4,0.002762497,0.010326673,0.6274305,5.808782,7.6539636,0,0,0,0,0,0,0,0,0,0,0,0,0,0,0,0,0,0,0,0,0
352,-3.010903,-0.6433609,-0.08164768,-0.028496357,-0.043043874,0.013522467,0.68369424,5.831527,7.6874824,0,0,0,0,0,0,0,0,0,0,0,0,0,0,0,0,0,0,0,0,0
353,-3.011123,-0.6420359,-0.08369385,-0.021039505,-0.05263125,0.0028698223,0.67531455,5.820753,7.864653,0,0,0,0,0,0,0,0,0,0,0,0,0,0,0,0,0,0,0,0,0
354,-3.0112095,-0.6417843,-0.085166015,-0.01251739,-0.019608056,0.009261409,0.6465841,5.7872343,7.691074,0,0,0,0,0,0,0,0,0,0,0,0,0,0,0,0,0,0,0,0,0
355,-3.0113158,-0.6405978,-0.08493835,-0.034887943,0.017676199,0.014587731,0.70643914,5.842301,7.7976155,0,0,0,0,0,0,0,0,0,0,0,0,0,0,0,0,0,0,0,0,0
356,-3.011879,-0.64008194,-0.08567843,-0.011452125,-0.03984808,0.00713088,0.59032035,5.854272,7.7712793,0,0,0,0,0,0,0,0,0,0,0,0,0,0,0,0,0,0,0,0,0
357,-3.0121372,-0.63960797,-0.08737115,-0.015713183,-0.061153367,-3.259709E-4,0.56278706,5.8638487,7.8215575,0,0,0,0,0,0,0,0,0,0,0,0,0,0,0,0,0,0,0,0,0
358,-3.0123205,-0.6394549,-0.08909585,-0.006125803,-0.035587024,0.014587731,0.7387609,5.8399067,7.7676883,0,0,0,0,0,0,0,0,0,0,0,0,0,0,0,0,0,0,0,0,0
359,-3.01242,-0.639409,-0.09078151,-0.0018647454,-0.040913343,0.011391938,0.71601593,5.7980084,7.721001,0,0,0,0,0,0,0,0,0,0,0,0,0,0,0,0,0,0,0,0,0
360,-3.0120854,-0.63949615,-0.09078934,-0.016778447,-0.053696517,0.025240375,0.70404494,5.802797,7.7006507,0,0,0,0,0,0,0,0,0,0,0,0,0,0,0,0,0,0,0,0,0
361,-3.0128045,-0.6384436,-0.09309407,-0.028496357,-0.03771755,0.040154077,0.68967974,5.7620955,7.810784,0,0,0,0,0,0,0,0,0,0,0,0,0,0,0,0,0,0,0,0,0
362,-3.0140967,-0.63733095,-0.09539431,-0.0050605386,-0.01854279,0.028436169,0.71601593,5.8853965,8.038233,0,0,0,0,0,0,0,0,0,0,0,0,0,0,0,0,0,0,0,0,0
363,-3.0152857,-0.6378805,-0.09570195,0.04287636,0.045373075,0.03802355,0.72798693,5.7405477,7.907749,0,0,0,0,0,0,0,0,0,0,0,0,0,0,0,0,0,0,0,0,0
364,-3.0174487,-0.64001626,-0.095205724,0.08442167,-0.06861022,0.055067778,0.57116675,5.7620955,8.013094,0,0,0,0,0,0,0,0,0,0,0,0,0,0,0,0,0,0,0,0,0
365,-3.0216322,-0.64472985,-0.10266175,0.17070809,-0.18046299,0.097678356,0.58553195,5.8039937,7.8933835,0,0,0,0,0,0,0,0,0,0,0,0,0,0,0,0,0,0,0,0,0
366,-3.0274646,-0.65061885,-0.11599031,0.19732346,-0.3051125,0.1328446,0.9207202,5.880608,7.7126217,0,0,0,0,0,0,0,0,0,0,0,0,0,0,0,0,0,0,0,0,0
367,-3.0295212,-0.65654635,-0.12929684,0.15790868,-0.28487247,0.083842434,1.0631752,5.993136,7.3834186,0,0,0,0,0,0,0,0,0,0,0,0,0,0,0,0,0,0,0,0,0
368,-3.0278156,-0.6566651,-0.12975441,0.06629593,-0.17408498,0.061471883,1.1613375,5.9763765,7.572561,0,0,0,0,0,0,0,0,0,0,0,0,0,0,0,0,0,0,0,0,0
369,-3.031225,-0.6615705,-0.14064436,0.10997178,-0.08140697,0.030579215,1.0308535,5.981165,7.6395984,0,0,0,0,0,0,0,0,0,0,0,0,0,0,0,0,0,0,0,0,0
370,-3.0301607,-0.66197115,-0.14086348,0.07375278,0.13484171,0.10514773,1.0990882,5.90455,7.194277,0,0,0,0,0,0,0,0,0,0,0,0,0,0,0,0,0,0,0,0,0
371,-3.0347672,-0.6629738,-0.14008202,0.0013148027,-0.0036426717,0.10514773,1.2846389,6.080524,7.3582797,0,0,0,0,0,0,0,0,0,0,0,0,0,0,0,0,0,0,0,0,0
372,-3.0372567,-0.6629318,-0.14512575,-0.006142048,-0.15704075,0.04123186,1.1780969,6.047005,7.5079174,0,0,0,0,0,0,0,0,0,0,0,0,0,0,0,0,0,0,0,0,0
373,-3.0384078,-0.6623641,-0.14904831,-0.03277366,-0.036665868,0.009273926,1.1314099,6.175095,7.6096706,0,0,0,0,0,0,0,0,0,0,0,0,0,0,0,0,0,0,0,0,0
374,-3.039698,-0.66135025,-0.14585459,-0.017859956,0.14655961,-3.1345405E-4,0.99374336,6.0853124,7.6180506,0,0,0,0,0,0,0,0,0,0,0,0,0,0,0,0,0,0,0,0,0
375,-3.0428352,-0.6604786,-0.1402957,-0.033838924,0.19023545,0.05614556,1.0272622,5.95842,7.390601,0,0,0,0,0,0,0,0,0,0,0,0,0,0,0,0,0,0,0,0,0
376,-3.0451176,-0.65755826,-0.14244522,-0.07751477,-0.08992909,0.028448686,1.0512042,5.8734255,7.679103,0,0,0,0,0,0,0,0,0,0,0,0,0,0,0,0,0,0,0,0,0
377,-3.0465994,-0.6555495,-0.14549665,-0.046622097,-0.07395013,0.023122363,1.2235867,5.9620113,7.9400706,0,0,0,0,0,0,0,0,0,0,0,0,0,0,0,0,0,0,0,0,0
378,-3.047013,-0.65570396,-0.14582406,-0.029577866,0.108210094,0.015665513,1.2176012,5.903353,7.456442,0,0,0,0,0,0,0,0,0,0,0,0,0,0,0,0,0,0,0,0,0
379,-3.0471187,-0.6545449,-0.14232172,-0.099885315,0.19449651,0.014600248,1.3624504,5.850681,7.3953896,0,0,0,0,0,0,0,0,0,0,0,0,0,0,0,0,0,0,0,0,0
380,-3.0471244,-0.6499508,-0.13734582,-0.13397378,0.024054203,-0.057837732,1.3385084,5.7561097,7.8814125,0,0,0,0,0,0,0,0,0,0,0,0,0,0,0,0,0,0,0,0,0
381,-3.0433939,-0.6460877,-0.13455759,-0.09349373,0.062403724,-0.13134098,1.0942998,5.7956142,7.920917,0,0,0,0,0,0,0,0,0,0,0,0,0,0,0,0,0,0,0,0,0
382,-3.0404031,-0.6439239,-0.1260251,-0.06579686,0.1827786,-0.08127355,0.8524854,5.778855,7.7820535,0,0,0,0,0,0,0,0,0,0,0,0,0,0,0,0,0,0,0,0,0
383,-3.0393524,-0.6423907,-0.12007856,-0.05088182,0.09329746,-0.07914409,0.9458593,5.8614545,7.744943,0,0,0,0,0,0,0,0,0,0,0,0,0,0,0,0,0,0,0,0,0
384,-3.0370545,-0.6405639,-0.11493656,-0.07325237,0.06027426,-0.113232546,0.787842,5.8399067,7.7317753,0,0,0,0,0,0,0,0,0,0,0,0,0,0,0,0,0,0,0,0,0
385,-3.0362508,-0.6388427,-0.10968488,-0.048751295,0.049621616,-0.08660094,0.5244798,5.8614545,7.885004,0,0,0,0,0,0,0,0,0,0,0,0,0,0,0,0,0,0,0,0,0
386,-3.040229,-0.64007354,-0.10954885,0.036469862,0.01979421,0.034839205,0.69327104,5.946449,7.8395143,0,0,0,0,0,0,0,0,0,0,0,0,0,0,0,0,0,0,0,0,0
387,-3.0421994,-0.6403751,-0.10934051,0.00983825,-0.0015110776,-0.004575577,0.7579145,5.8841996,7.620445,0,0,0,0,0,0,0,0,0,0,0,0,0,0,0,0,0,0,0,0,0
388,-3.0443213,-0.64035434,-0.10850023,0.00983825,-0.041991126,-0.009901899,0.60109425,5.8578634,7.898172,0,0,0,0,0,0,0,0,0,0,0,0,0,0,0,0,0,0,0,0,0
389,-3.046088,-0.64145505,-0.109662116,0.04818777,-0.012163722,0.0710582,0.67531455,5.866243,7.5450273,0,0,0,0,0,0,0,0,0,0,0,0,0,0,0,0,0,0,0,0,0
390,-3.050565,-0.6421195,-0.11167384,-0.029576534,0.0059457733,0.092363484,0.8668507,5.8602576,7.625233,0,0,0,0,0,0,0,0,0,0,0,0,0,0,0,0,0,0,0,0,0
391,-3.0533023,-0.6404418,-0.114273906,-0.041294444,-0.013228986,0.017794976,1.0787375,5.9117327,7.852682,0,0,0,0,0,0,0,0,0,0,0,0,0,0,0,0,0,0,0,0,0
392,-3.0532043,-0.6395454,-0.11325665,-0.027446005,0.040034235,-0.006706106,0.870442,5.9440546,7.8778214,0,0,0,0,0,0,0,0,0,0,0,0,0,0,0,0,0,0,0,0,0
393,-3.05234,-0.64001304,-0.11092757,0.025817215,0.05494794,-0.030141924,0.8524854,5.927295,7.7940245,0,0,0,0,0,0,0,0,0,0,0,0,0,0,0,0,0,0,0,0,0
394,-3.05203,-0.64119035,-0.10966755,0.0172951,-4.4581317E-4,-0.012032428,0.80579853,5.7058315,7.5713634,0,0,0,0,0,0,0,0,0,0,0,0,0,0,0,0,0,0,0,0,0
395,-3.0519629,-0.6396046,-0.11122056,-0.041294444,-0.04305639,0.0039465385,0.91234046,5.685481,7.742549,0,0,0,0,0,0,0,0,0,0,0,0,0,0,0,0,0,0,0,0,0
396,-3.052445,-0.6382864,-0.11285342,-0.031707063,-0.034534276,0.010338125,1.0069114,5.7261825,7.8323317,0,0,0,0,0,0,0,0,0,0,0,0,0,0,0,0,0,0,0,0,0
397,-3.052384,-0.63812774,-0.113282114,-0.034902856,0.070926905,0.025251826,1.0452187,5.6962547,7.7365637,0,0,0,0,0,0,0,0,0,0,0,0,0,0,0,0,0,0,0,0,0
398,-3.0537877,-0.63666534,-0.111290686,-0.05514288,0.10288484,0.03057815,0.98177236,5.7154083,7.7485347,0,0,0,0,0,0,0,0,0,0,0,0,0,0,0,0,0,0,0,0,0
399,-3.0550947,-0.6344158,-0.10836611,-0.069003835,0.07624284,0.011413243,0.8105869,5.746533,7.8802156,0,0,0,0,0,0,0,0,0,0,0,0,0,0,0,0,0,0,0,0,0
400,-3.056626,-0.6319842,-0.10624098,-0.0072184983,0.041089114,-0.0013699301,0.7639,5.8255415,8.132804,0,0,0,0,0,0,0,0,0,0,0,0,0,0,0,0,0,0,0,0,0
401,-3.058547,-0.6336923,-0.104399115,0.058827896,0.08689548,0.018870095,0.6322189,5.7417445,7.7221985,0,0,0,0,0,0,0,0,0,0,0,0,0,0,0,0,0,0,0,0,0
402,-3.061503,-0.63412523,-0.10159143,-0.001892176,0.10820077,0.048697498,0.7543232,5.782446,7.721001,0,0,0,0,0,0,0,0,0,0,0,0,0,0,0,0,0,0,0,0,0
403,-3.0623567,-0.63354427,-0.10036558,-0.03917643,0.062394403,0.010347978,0.90635496,5.9117327,7.8179665,0,0,0,0,0,0,0,0,0,0,0,0,0,0,0,0,0,0,0,0,0
404,-3.0632412,-0.6329823,-0.095961064,-0.014675349,0.111396566,-0.012022574,0.61067104,5.829133,7.873033,0,0,0,0,0,0,0,0,0,0,0,0,0,0,0,0,0,0,0,0,0
405,-3.06619,-0.63363326,-0.09208164,0.024739435,0.1135271,0.019935358,0.49814358,5.850681,8.0406275,0,0,0,0,0,0,0,0,0,0,0,0,0,0,0,0,0,0,0,0,0
406,-3.0682876,-0.633832,-0.09142578,0.09185109,0.08476496,0.045501705,0.46462476,5.8818054,7.8275433,0,0,0,0,0,0,0,0,0,0,0,0,0,0,0,0,0,0,0,0,0
407,-3.071307,-0.637304,-0.09017693,0.08545951,-0.012174108,0.04443644,0.60588264,5.880608,7.652766,0,0,0,0,0,0,0,0,0,0,0,0,0,0,0,0,0,0,0,0,0
408,-3.0731986,-0.6401057,-0.09262641,0.07480686,-0.07502471,0.030588003,0.787842,5.8399067,7.685088,0,0,0,0,0,0,0,0,0,0,0,0,0,0,0,0,0,0,0,0,0
409,-3.0742745,-0.64240164,-0.09610362,0.04284893,-0.03454466,0.023131153,0.8261492,5.843498,7.598897,0,0,0,0,0,0,0,0,0,0,0,0,0,0,0,0,0,0,0,0,0
410,-3.0747743,-0.6426473,-0.0987523,0.0066299397,-0.11550476,0.023131153,0.9769839,5.819556,7.9029603,0,0,0,0,0,0,0,0,0,0,0,0,0,0,0,0,0,0,0,0,0
411,-3.0730126,-0.6447303,-0.104274355,0.09398162,-0.17302904,-0.04184998,0.89917237,5.769278,7.8873982,0,0,0,0,0,0,0,0,0,0,0,0,0,0,0,0,0,0,0,0,0
412,-3.0721118,-0.6483617,-0.10823607,0.08119845,-0.10911317,-0.02054469,0.7662942,5.8004026,7.564181,0,0,0,0,0,0,0,0,0,0,0,0,0,0,0,0,0,0,0,0,0
413,-3.0710871,-0.6486255,-0.10935003,-0.001892176,-0.012174108,0.0018258633,0.9554361,5.8494835,7.6647377,0,0,0,0,0,0,0,0,0,0,0,0,0,0,0,0,0,0,0,0,0
414,-3.0697691,-0.6483586,-0.10832604,-0.010414291,0.034697525,-0.015218368,1.0535984,5.9260983,7.730578,0,0,0,0,0,0,0,0,0,0,0,0,0,0,0,0,0,0,0,0,0
415,-3.0688744,-0.64845353,-0.1067803,2.3835292E-4,0.013392238,-0.03758892,0.7734768,5.866243,7.741352,0,0,0,0,0,0,0,0,0,0,0,0,0,0,0,0,0,0,0,0,0
416,-3.0700185,-0.6484565,-0.10634935,-0.011487013,0.029364813,-0.012016982,0.6585551,5.8638487,7.7078333,0,0,0,0,0,0,0,0,0,0,0,0,0,0,0,0,0,0,0,0,0
417,-3.070671,-0.6480196,-0.104432255,-0.01574807,0.05493116,0.0124841,0.6669348,5.9440546,7.8083897,0,0,0,0,0,0,0,0,0,0,0,0,0,0,0,0,0,0,0,0,0
418,-3.072412,-0.64783734,-0.103177294,0.011948804,-0.015376293,0.029528331,0.70404494,5.9189157,7.7126217,0,0,0,0,0,0,0,0,0,0,0,0,0,0,0,0,0,0,0,0,0
419,-3.0741773,-0.648703,-0.106656745,0.033254094,-0.1442733,0.013549364,0.72439563,5.8841996,7.6096706,0,0,0,0,0,0,0,0,0,0,0,0,0,0,0,0,0,0,0,0,0
420,-3.0753098,-0.649076,-0.11159378,0.013014069,-0.095271125,0.023136744,0.8632594,5.922507,7.8083897,0,0,0,0,0,0,0,0,0,0,0,0,0,0,0,0,0,0,0,0,0
421,-3.0766528,-0.6501814,-0.113465376,0.03538462,-0.026028937,0.035919916,0.8393173,5.891382,7.6072764,0,0,0,0,0,0,0,0,0,0,0,0,0,0,0,0,0,0,0,0,0
422,-3.0775952,-0.65033257,-0.11738537,2.3089607E-4,-0.08781427,0.025267273,1.0236709,5.903353,7.578546,0,0,0,0,0,0,0,0,0,0,0,0,0,0,0,0,0,0,0,0,0
423,-3.07613,-0.649409,-0.11926223,-0.022139657,-0.053725813,-0.024800155,1.0476129,5.9093385,7.87423,0,0,0,0,0,0,0,0,0,0,0,0,0,0,0,0,0,0,0,0,0
424,-3.0754523,-0.65006006,-0.11924499,0.019405656,-0.015376293,-0.020539097,0.89198977,5.8279357,7.6743145,0,0,0,0,0,0,0,0,0,0,0,0,0,0,0,0,0,0,0,0,0
425,-3.0762384,-0.65002275,-0.11909971,0.0066224826,-0.05053002,0.007157778,0.8632594,5.850681,7.6767087,0,0,0,0,0,0,0,0,0,0,0,0,0,0,0,0,0,0,0,0,0
426,-3.076804,-0.65009606,-0.121580586,-0.0029648973,-0.09846692,-2.99073E-4,0.99972886,5.878214,7.738958,0,0,0,0,0,0,0,0,0,0,0,0,0,0,0,0,0,0,0,0,0
427,-3.0769215,-0.64988136,-0.124920905,0.018340392,-0.030289995,-0.018408569,1.0416274,5.939266,7.814375,0,0,0,0,0,0,0,0,0,0,0,0,0,0,0,0,0,0,0,0,0
428,-3.077471,-0.6512506,-0.12479862,0.036449887,-0.046268962,-0.0066906596,0.7555203,5.8830023,7.4863696,0,0,0,0,0,0,0,0,0,0,0,0,0,0,0,0,0,0,0,0,0
429,-3.0789325,-0.6514801,-0.12784907,-0.008291219,-0.110184826,0.028463067,0.91353756,5.9859533,7.8754272,0,0,0,0,0,0,0,0,0,0,0,0,0,0,0,0,0,0,0,0,0
430,-3.0803394,-0.65229553,-0.13206875,0.10249628,-0.124033265,0.010353572,0.91593176,5.95842,8.420108,0,0,0,0,0,0,0,0,0,0,0,0,0,0,0,0,0,0,0,0,0
431,-3.0858982,-0.65951896,-0.13606487,0.25376382,-0.08781427,0.08918314,0.514903,5.820753,7.6419926,0,0,0,0,0,0,0,0,0,0,0,0,0,0,0,0,0,0,0,0,0
432,-3.099571,-0.6619743,-0.14113314,0.043906737,-0.082487956,0.22660226,0.15218145,6.0493994,7.718607,0,0,0,0,0,0,0,0,0,0,0,0,0,0,0,0,0,0,0,0,0
433,-3.1166189,-0.66683763,-0.16484694,0.27934003,-0.6950065,0.21381135,-1.2735656,4.8882117,8.726566,0,0,0,0,0,0,0,0,0,0,0,0,0,0,0,0,0,0,0,0,0
434,-3.137892,-0.6649403,-0.18924674,0.10570193,-0.5629137,0.38425365,-0.5397428,5.5358434,9.79438,0,0,0,0,0,0,0,0,0,0,0,0,0,0,0,0,0,0,0,0,0
435,-3.1398423,-0.6621621,-0.1868829,-0.29057643,0.6184646,0.40555894,0.7890391,6.4528227,11.086052,0,0,0,0,0,0,0,0,0,0,0,0,0,0,0,0,0,0,0,0,0
436,3.1262696,-0.6455047,-0.16454996,-0.067936175,1.1212693,0.3767968,0.038456865,6.5162687,12.541726,0,0,0,0,0,0,0,0,0,0,0,0,0,0,0,0,0,0,0,0,0
437,3.1037865,-0.649232,-0.14222206,0.8726923,0.43950015,0.50675905,0.17133506,5.877017,10.4049015,0,0,0,0,0,0,0,0,0,0,0,0,0,0,0,0,0,0,0,0,0
438,3.071499,-0.6835375,-0.15422015,1.3296908,0.078375496,0.5536307,0.8261492,5.724985,7.9999256,0,0,0,0,0,0,0,0,0,0,0,0,0,0,0,0,0,0,0,0,0
439,3.0387933,-0.7279257,-0.17118105,1.2966676,0.37345374,0.49504116,1.3420997,5.6076694,5.5410805,0,0,0,0,0,0,0,0,0,0,0,0,0,0,0,0,0,0,0,0,0
440,3.0154374,-0.7583731,-0.17190325,0.8908018,0.69409835,0.47799695,1.7550995,5.209035,5.0730143,0,0,0,0,0,0,0,0,0,0,0,0,0,0,0,0,0,0,0,0,0
441,3.0043254,-0.7798792,-0.16613682,0.6692268,0.8613449,0.31501147,2.7486932,5.4520464,4.54629,0,0,0,0,0,0,0,0,0,0,0,0,0,0,0,0,0,0,0,0,0
442,3.0034192,-0.8099008,-0.1553278,0.8524523,0.4863718,-0.0013720606,1.3241432,6.8454714,4.0650554,0,0,0,0,0,0,0,0,0,0,0,0,0,0,0,0,0,0,0,0,0
443,2.8957696,-0.8294664,-0.16707295,0.4295423,0.47358862,0.3224683,2.0436008,6.458808,1.8001404,0,0,0,0,0,0,0,0,0,0,0,0,0,0,0,0,0,0,0,0,0
444,2.9153671,-0.8324446,-0.17649417,-0.53345674,1.0616145,0.3949063,2.6241946,6.544999,3.5383308,0,0,0,0,0,0,0,0,0,0,0,0,0,0,0,0,0,0,0,0,0
445,2.9051373,-0.80829567,-0.1516576,-0.67087585,0.79742897,0.28837988,2.18845,7.0585556,6.970419,0,0,0,0,0,0,0,0,0,0,0,0,0,0,0,0,0,0,0,0,0
446,2.9017437,-0.7869613,-0.14241634,-0.06260985,0.1412261,0.24470402,3.2119713,7.4117002,6.9979525,0,0,0,0,0,0,0,0,0,0,0,0,0,0,0,0,0,0,0,0,0
447,2.902524,-0.7893254,-0.15036142,0.066287145,-0.039868854,-0.14198697,2.770241,7.6882305,6.0151324,0,0,0,0,0,0,0,0,0,0,0,0,0,0,0,0,0,0,0,0,0
448,2.9181893,-0.78921914,-0.14354326,-0.312947,0.27864522,-0.3145598,2.0400095,7.9563813,6.283283,0,0,0,0,0,0,0,0,0,0,0,0,0,0,0,0,0,0,0,0,0
449,2.93652,-0.7754679,-0.118595734,-0.4461149,0.31485566,-0.4125564,1.5731401,8.228123,7.8311343,0,0,0,0,0,0,0,0,0,0,0,0,0,0,0,0,0,0,0,0,0
450,2.9581878,-0.7708483,-0.105751134,-0.055162854,-0.3509346,-0.5201481,1.1924621,7.9264536,7.953239,0,0,0,0,0,0,0,0,0,0,0,0,0,0,0,0,0,0,0,0,0
451,2.9823682,-0.7784045,-0.111365534,0.20795746,-0.6896887,-0.60856503,1.4677953,7.775619,7.87423,0,0,0,0,0,0,0,0,0,0,0,0,0,0,0,0,0,0,0,0,0
452,3.0102322,-0.7870048,-0.109612934,0.17280373,-0.550139,-0.6778073,1.3887867,7.643938,7.232584,0,0,0,0,0,0,0,0,0,0,0,0,0,0,0,0,0,0,0,0,0
453,3.046545,-0.79018724,-0.072398484,0.027927771,0.16039234,-0.9100349,0.06239888,6.7006226,7.0015435,0,0,0,0,0,0,0,0,0,0,0,0,0,0,0,0,0,0,0,0,0
454,3.0417156,-0.7861624,-0.06926265,-0.17447247,0.43523055,-0.51269126,-0.68100077,5.3969793,8.050204,0,0,0,0,0,0,0,0,0,0,0,0,0,0,0,0,0,0,0,0,0
455,3.0572262,-0.7798402,-0.03378905,0.70543593,0.20300291,-0.28259414,-1.0928035,5.999121,8.015488,0,0,0,0,0,0,0,0,0,0,0,0,0,0,0,0,0,0,0,0,0
456,3.0573459,-0.8186042,-0.0164412,0.98986155,-0.17729649,-0.37314162,-1.6745944,6.0601735,4.4505215,0,0,0,0,0,0,0,0,0,0,0,0,0,0,0,0,0,0,0,0,0
457,3.0594728,-0.8385665,-0.0030392488,0.31235337,0.04108272,-0.15476242,-1.278354,5.8255415,4.6384664,0,0,0,0,0,0,0,0,0,0,0,0,0,0,0,0,0,0,0,0,0
458,3.0493028,-0.8380481,0.018352982,-0.47700757,0.9881028,0.06361679,-1.7224785,6.3211412,5.1053357,0,0,0,0,0,0,0,0,0,0,0,0,0,0,0,0,0,0,0,0,0
459,3.0426679,-0.8038342,0.06535277,-1.0607724,1.33964,-0.06208441,-0.94795424,6.3259296,6.6902976,0,0,0,0,0,0,0,0,0,0,0,0,0,0,0,0,0,0,0,0,0
460,3.0335746,-0.77030677,0.087676115,-0.89139545,0.4341653,0.06787785,-2.0684407,6.172701,7.3654623,0,0,0,0,0,0,0,0,0,0,0,0,0,0,0,0,0,0,0,0,0
461,3.0016134,-0.7551573,0.050402343,-0.35237163,-0.90274155,0.66975224,-2.1247044,6.2361474,6.9991493,0,0,0,0,0,0,0,0,0,0,0,0,0,0,0,0,0,0,0,0,0
462,2.9499633,-0.75616026,-0.03947982,0.018340392,-1.621795,1.1416644,0.054019175,5.996727,6.2401876,0,0,0,0,0,0,0,0,0,0,0,0,0,0,0,0,0,0,0,0,0
463,2.965888,-0.7557171,-0.054188594,-0.65490675,-1.8561532,1.3706962,6.3088713,8.134749,6.4424977,0,0,0,0,0,0,0,0,0,0,0,0,0,0,0,0,0,0,0,0,0
464,2.9082272,-0.7206942,-0.13095036,-0.6080351,0.6749151,0.1083579,1.8676269,8.445995,9.972748,0,0,0,0,0,0,0,0,0,0,0,0,0,0,0,0,0,0,0,0,0
465,2.9116762,-0.7198823,-0.122987956,0.06947308,-0.24547341,0.3959793,0.45863926,6.340295,6.9153523,0,0,0,0,0,0,0,0,0,0,0,0,0,0,0,0,0,0,0,0,0
466,2.884611,-0.71940196,-0.13968243,-0.22027884,0.13056493,0.88919675,0.6537667,8.445995,6.5610104,0,0,0,0,0,0,0,0,0,0,0,0,0,0,0,0,0,0,0,0,0
467,2.850334,-0.7063288,-0.14656895,-0.3300011,0.521517,0.79864925,1.5851111,6.6479497,8.043021,0,0,0,0,0,0,0,0,0,0,0,0,0,0,0,0,0,0,0,0,0
468,2.8165545,-0.699258,-0.14633492,0.040710945,0.9092732,0.86149985,1.8436849,7.132776,8.330325,0,0,0,0,0,0,0,0,0,0,0,0,0,0,0,0,0,0,0,0,0
469,2.7803204,-0.71301454,-0.1341011,0.6415201,1.1265872,0.6644259,1.1421839,6.756886,7.2265987,0,0,0,0,0,0,0,0,0,0,0,0,0,0,0,0,0,0,0,0,0
470,2.7492101,-0.7217601,-0.114392504,0.16960794,1.2789199,0.6750786,1.2822447,6.455217,5.7158575,0,0,0,0,0,0,0,0,0,0,0,0,0,0,0,0,0,0,0,0,0
471,2.722404,-0.7089794,-0.06987746,-0.3715464,1.6794595,0.52381104,-0.3254618,7.0920744,7.290045,0,0,0,0,0,0,0,0,0,0,0,0,0,0,0,0,0,0,0,0,0
472,2.7012393,-0.6996945,-0.02621406,-0.20323461,1.8786639,0.5855964,1.41632,6.0027127,8.228572,0,0,0,0,0,0,0,0,0,0,0,0,0,0,0,0,0,0,0,0,0
473,2.701806,-0.69931394,-0.027423413,0.034319356,1.6826552,0.24258122,0.68489134,6.4061356,7.8814125,0,0,0,0,0,0,0,0,0,0,0,0,0,0,0,0,0,0,0,0,0
474,2.6829734,-0.7034565,0.025209459,0.19837008,0.85174894,0.035919916,-1.8397944,6.5246487,6.12766,0,0,0,0,0,0,0,0,0,0,0,0,0,0,0,0,0,0,0,0,0
475,2.6718764,-0.71015006,0.051804136,0.31022283,0.56412756,0.30223602,-0.9132383,6.4360633,6.942886,0,0,0,0,0,0,0,0,0,0,0,0,0,0,0,0,0,0,0,0,0
476,2.6481411,-0.7244032,0.054424934,0.1855869,0.21578608,0.447112,-0.03935469,5.910536,5.650017,0,0,0,0,0,0,0,0,0,0,0,0,0,0,0,0,0,0,0,0,0
477,2.6286104,-0.7188369,0.037883192,-0.56222874,-0.37010935,0.30010548,0.49934068,5.66513,6.400599,0,0,0,0,0,0,0,0,0,0,0,0,0,0,0,0,0,0,0,0,0
478,2.6191895,-0.6949511,-0.0073417807,-0.44718015,-1.0273775,0.2010359,-2.5137622,5.972785,8.11365,0,0,0,0,0,0,0,0,0,0,0,0,0,0,0,0,0,0,0,0,0
479,2.5824394,-0.67457813,-0.092607945,-0.62081826,-1.8689364,1.0042453,0.6346131,6.3438864,7.0230913,0,0,0,0,0,0,0,0,0,0,0,0,0,0,0,0,0,0,0,0,0
480,2.5545697,-0.65291935,-0.1514054,-0.59418666,-1.1456219,0.64099014,0.8285434,6.413318,7.306804,0,0,0,0,0,0,0,0,0,0,0,0,0,0,0,0,0,0,0,0,0
481,2.4975553,-0.62401915,-0.1823863,-0.78593427,-0.13042486,1.2513866,0.9614216,7.183054,6.5657988,0,0,0,0,0,0,0,0,0,0,0,0,0,0,0,0,0,0,0,0,0
482,2.5026479,-0.61896366,-0.181734,-0.14677559,1.7518973,1.1139675,1.3349171,3.4828153,8.846276,0,0,0,0,0,0,0,0,0,0,0,0,0,0,0,0,0,0,0,0,0
483,2.4656568,-0.61572427,-0.13615708,0.15467799,0.53428656,0.8061186,0.80340433,4.6332293,7.7221985,0,0,0,0,0,0,0,0,0,0,0,0,0,0,0,0,0,0,0,0,0
484,2.4340365,-0.6170154,-0.13763756,-0.22988246,-0.034564637,0.44392872,0.049230773,5.280861,7.352294,0,0,0,0,0,0,0,0,0,0,0,0,0,0,0,0,0,0,0,0,0
485,2.4148428,-0.6045554,-0.13667849,-0.6836851,1.4099339,0.007170295,0.055216275,5.5418286,6.877045,0,0,0,0,0,0,0,0,0,0,0,0,0,0,0,0,0,0,0,0,0
486,2.4130342,-0.5752738,-0.048963238,-1.0384182,3.2081003,0.1296757,-0.71092826,6.386982,8.628404,0,0,0,0,0,0,0,0,0,0,0,0,0,0,0,0,0,0,0,0,0
487,2.3922355,-0.54435104,0.037189722,-0.4866112,2.051223,0.63035,-1.6530466,5.6112604,11.633127,0,0,0,0,0,0,0,0,0,0,0,0,0,0,0,0,0,0,0,0,0
488,2.372831,-0.54606146,0.023020849,0.17278749,-1.1456355,0.30757487,-0.27398646,4.45127,9.073725,0,0,0,0,0,0,0,0,0,0,0,0,0,0,0,0,0,0,0,0,0
489,2.3736165,-0.54728067,-0.053925637,-0.098854944,-2.247119,-0.2538195,1.0116999,4.7433624,5.9636574,0,0,0,0,0,0,0,0,0,0,0,0,0,0,0,0,0,0,0,0,0
490,2.4037347,-0.53898335,-0.054576945,-0.3278868,0.12202924,-0.061006628,2.1716905,4.7900496,5.700295,0,0,0,0,0,0,0,0,0,0,0,0,0,0,0,0,0,0,0,0,0
491,2.3973677,-0.5394669,-0.03235864,0.0044757086,0.8730407,0.19039577,1.6593314,5.5633764,8.541016,0,0,0,0,0,0,0,0,0,0,0,0,0,0,0,0,0,0,0,0,0
492,2.3984122,-0.53834003,-0.033480328,0.07478316,1.2096642,0.8604471,0.67531455,4.010737,7.6156564,0,0,0,0,0,0,0,0,0,0,0,0,0,0,0,0,0,0,0,0,0
493,2.3767865,-0.53312665,-0.019108696,-0.3545184,1.2149905,0.49719194,2.3823802,2.4999955,7.907749,0,0,0,0,0,0,0,0,0,0,0,0,0,0,0,0,0,0,0,0,0
494,2.3730857,-0.51451904,0.013992402,-0.14253078,1.0530703,0.22022317,0.71960723,3.1129112,10.907683,0,0,0,0,0,0,0,0,0,0,0,0,0,0,0,0,0,0,0,0,0
495,2.3676033,-0.52129954,0.034985714,0.59037113,0.41284642,0.15737258,-0.0070329676,3.4768298,9.200618,0,0,0,0,0,0,0,0,0,0,0,0,0,0,0,0,0,0,0,0,0
496,2.3481483,-0.54798543,0.030364696,0.5200637,-0.039890956,0.17122102,0.4921581,4.8259625,6.246173,0,0,0,0,0,0,0,0,0,0,0,0,0,0,0,0,0,0,0,0,0
497,2.3399975,-0.5444413,0.029410388,-0.17768452,0.12522502,0.25111586,0.41554365,5.1240406,8.784027,0,0,0,0,0,0,0,0,0,0,0,0,0,0,0,0,0,0,0,0,0
498,2.3209474,-0.5665909,0.025474366,0.98558426,0.25412202,0.5547162,0.28146833,3.9161658,9.533412,0,0,0,0,0,0,0,0,0,0,0,0,0,0,0,0,0,0,0,0,0
499,2.3054266,-0.61589026,0.036859643,1.2849272,0.44161177,-0.072727464,-0.4739023,5.38022,5.950489,0,0,0,0,0,0,0,0,0,0,0,0,0,0,0,0,0,0,0,0,0
500,2.295534,-0.6274124,0.07098775,0.37306094,1.0402904,0.088127464,-0.92880064,5.296423,8.178294,0,0,0,0,0,0,0,0,0,0,0,0,0,0,0,0,0,0,0,0,0
501,2.2880325,-0.62679106,0.071074866,0.23670708,0.11244505,0.2788098,-0.6402993,5.7740664,8.482357,0,0,0,0,0,0,0,0,0,0,0,0,0,0,0,0,0,0,0,0,0
502,2.2670736,-0.63337225,0.06474914,-0.38327682,-0.8217918,0.12328119,-1.2520179,7.004686,9.025841,0,0,0,0,0,0,0,0,0,0,0,0,0,0,0,0,0,0,0,0,0
503,2.2578168,-0.6116707,0.01781187,-0.81577414,-1.7475066,0.34911725,-0.52298343,5.6591444,10.210971,0,0,0,0,0,0,0,0,0,0,0,0,0,0,0,0,0,0,0,0,0
504,2.244614,-0.5854278,-0.04986564,-0.22987874,-1.8114225,0.3533783,0.2228104,5.9919386,9.414899,0,0,0,0,0,0,0,0,0,0,0,0,0,0,0,0,0,0,0,0,0
505,2.191715,-0.5902001,-0.1225923,-0.14572285,-1.6367191,0.5877365,1.4917372,6.151153,5.6631846,0,0,0,0,0,0,0,0,0,0,0,0,0,0,0,0,0,0,0,0,0
506,2.1783328,-0.57734936,-0.15463163,-0.16915867,-0.07930254,0.36722675,2.0184617,5.3335333,8.083723,0,0,0,0,0,0,0,0,0,0,0,0,0,0,0,0,0,0,0,0,0
507,2.1573658,-0.59439754,-0.14018966,0.59357065,0.32869372,0.120085396,0.69805944,6.1774893,7.1535754,0,0,0,0,0,0,0,0,0,0,0,0,0,0,0,0,0,0,0,0,0
508,2.1296208,-0.58762395,-0.15597446,-0.43547478,-0.34774917,0.605846,0.8213608,6.5102835,7.8000097,0,0,0,0,0,0,0,0,0,0,0,0,0,0,0,0,0,0,0,0,0
509,2.109859,-0.5714822,-0.18567157,-0.39712524,-0.62471795,0.5216901,1.2583027,6.070947,9.383775,0,0,0,0,0,0,0,0,0,0,0,0,0,0,0,0,0,0,0,0,0
510,2.1181726,-0.5688507,-0.18722081,0.49450108,-0.23163536,0.27348348,2.3117514,4.1831193,8.581717,0,0,0,0,0,0,0,0,0,0,0,0,0,0,0,0,0,0,0,0,0
511,2.102288,-0.5844334,-0.19936082,0.50834954,-1.1498933,0.041255828,0.12823942,6.1906576,8.675091,0,0,0,0,0,0,0,0,0,0,0,0,0,0,0,0,0,0,0,0,0
512,2.0656567,-0.60990644,-0.23833029,1.2167504,0.51085395,0.6761534,0.90874916,7.396138,5.032313,0,0,0,0,0,0,0,0,0,0,0,0,0,0,0,0,0,0,0,0,0
513,2.0169876,-0.6438635,-0.22402349,1.1453776,1.5292467,0.91157687,1.7455226,5.296423,7.4660187,0,0,0,0,0,0,0,0,0,0,0,0,0,0,0,0,0,0,0,0,0
514,1.9788615,-0.6684953,-0.1978554,1.086788,1.3886318,0.7453956,1.1517607,5.5382376,9.575311,0,0,0,0,0,0,0,0,0,0,0,0,0,0,0,0,0,0,0,0,0
515,1.9462646,-0.6989754,-0.1910516,1.0175459,0.21151464,0.42155522,1.9490298,4.846313,7.9975314,0,0,0,0,0,0,0,0,0,0,0,0,0,0,0,0,0,0,0,0,0
516,1.9296614,-0.71201366,-0.21800916,0.17384769,-0.74083894,0.06789436,1.7622821,6.348675,6.972813,0,0,0,0,0,0,0,0,0,0,0,0,0,0,0,0,0,0,0,0,0
517,1.9298629,-0.7118014,-0.2506272,0.1493466,-0.9656097,0.040197488,2.034024,5.50831,8.350677,0,0,0,0,0,0,0,0,0,0,0,0,0,0,0,0,0,0,0,0,0
518,1.9207678,-0.7316044,-0.28428116,0.5307113,-1.0646794,-0.2389018,2.5176528,6.2756515,6.49517,0,0,0,0,0,0,0,0,0,0,0,0,0,0,0,0,0,0,0,0,0
519,1.8997355,-0.75059265,-0.30822477,0.47531754,-0.65774834,-0.11107006,1.9705776,6.9268746,5.3734865,0,0,0,0,0,0,0,0,0,0,0,0,0,0,0,0,0,0,0,0,0
520,1.8891065,-0.7515453,-0.3105111,1.0207329,0.19020216,0.1477892,2.5188498,6.3019876,5.602133,0,0,0,0,0,0,0,0,0,0,0,0,0,0,0,0,0,0,0,0,0
521,1.8234664,-0.7868024,-0.3233827,0.8779875,0.48101935,-0.07272054,3.7111623,6.9137063,4.173991,0,0,0,0,0,0,0,0,0,0,0,0,0,0,0,0,0,0,0,0,0
522,1.8187658,-0.8071601,-0.30962577,-0.001920938,0.5246952,-0.49456525,2.320131,6.6431613,5.8511295,0,0,0,0,0,0,0,0,0,0,0,0,0,0,0,0,0,0,0,0,0
523,1.8361412,-0.81196237,-0.2756012,-0.2511928,0.21150745,-0.58937377,1.666514,6.802376,5.4369326,0,0,0,0,0,0,0,0,0,0,0,0,0,0,0,0,0,0,0,0,0
524,1.8677716,-0.80093485,-0.24523775,-0.51324785,0.29140228,-0.4242578,1.1002853,7.4260654,7.3056073,0,0,0,0,0,0,0,0,0,0,0,0,0,0,0,0,0,0,0,0,0
525,1.8830605,-0.8011122,-0.21911062,0.21432774,0.43308246,-0.32731873,1.5264533,6.6443586,7.6623435,0,0,0,0,0,0,0,0,0,0,0,0,0,0,0,0,0,0,0,0,0
526,1.8952582,-0.81440634,-0.19751461,0.21113195,0.13374315,-0.43171465,1.2918215,7.0202484,6.3718686,0,0,0,0,0,0,0,0,0,0,0,0,0,0,0,0,0,0,0,0,0
527,1.9139547,-0.81261724,-0.18362913,-0.23414858,-0.13363822,-0.50095683,1.1625346,7.265654,6.067805,0,0,0,0,0,0,0,0,0,0,0,0,0,0,0,0,0,0,0,0,0
528,1.9324273,-0.80878735,-0.15548134,-0.22243068,0.30205494,-0.457281,0.7615058,7.5122566,6.496367,0,0,0,0,0,0,0,0,0,0,0,0,0,0,0,0,0,0,0,0,0
529,1.932136,-0.8081534,-0.15379995,0.006601177,0.49593306,-0.26766393,0.5292682,7.2955813,7.398981,0,0,0,0,0,0,0,0,0,0,0,0,0,0,0,0,0,0,0,0,0
530,1.9443806,-0.8090819,-0.130384,0.064125456,0.24453065,-0.2175965,0.8680478,6.7042136,7.208642,0,0,0,0,0,0,0,0,0,0,0,0,0,0,0,0,0,0,0,0,0
531,1.9515572,-0.8132659,-0.11611849,0.14615081,0.15504844,-0.40401778,1.0200796,6.8813844,6.244976,0,0,0,0,0,0,0,0,0,0,0,0,0,0,0,0,0,0,0,0,0
532,1.9709629,-0.8181572,-0.09214351,0.06945178,0.24453065,-0.38377777,-0.40566754,7.8247,7.3953896,0,0,0,0,0,0,0,0,0,0,0,0,0,0,0,0,0,0,0,0,0
533,1.9806767,-0.8245481,-0.07697452,0.33789974,0.21789984,-0.11746272,0.49934068,7.00708,7.372645,0,0,0,0,0,0,0,0,0,0,0,0,0,0,0,0,0,0,0,0,0
534,1.9847732,-0.8376272,-0.06755605,0.3421608,-0.0175236,-0.26979554,0.70763624,7.2117844,6.4556656,0,0,0,0,0,0,0,0,0,0,0,0,0,0,0,0,0,0,0,0,0
535,1.9946741,-0.8444412,-0.058816608,0.09395419,-0.05906891,-0.33797246,0.29224226,7.467964,6.1611786,0,0,0,0,0,0,0,0,0,0,0,0,0,0,0,0,0,0,0,0,0
536,2.0010042,-0.8546994,-0.037745148,0.42205563,0.4075169,-0.11426692,-0.7636007,8.144326,7.4133463,0,0,0,0,0,0,0,0,0,0,0,0,0,0,0,0,0,0,0,0,0
537,1.9877365,-0.8714055,-0.035936918,0.4082072,0.11456919,0.15204918,0.087538,7.5589437,6.151602,0,0,0,0,0,0,0,0,0,0,0,0,0,0,0,0,0,0,0,0,0
538,1.9804258,-0.8671014,-0.05518624,-0.13294713,-0.47132623,0.066828035,0.6238392,7.1770687,5.906196,0,0,0,0,0,0,0,0,0,0,0,0,0,0,0,0,0,0,0,0,0
539,1.971964,-0.8684476,-0.056034103,-0.09992393,-0.32751554,-0.0610037,0.5304653,7.3686047,5.4189763,0,0,0,0,0,0,0,0,0,0,0,0,0,0,0,0,0,0,0,0,0
540,1.9714861,-0.8664864,-0.061396554,0.032168854,0.080480725,0.023152191,0.2599205,7.4488106,5.9253497,0,0,0,0,0,0,0,0,0,0,0,0,0,0,0,0,0,0,0,0,0
541,1.9674377,-0.86928654,-0.058707338,0.13017318,0.16357136,0.016760604,0.4873697,7.12679,6.1911063,0,0,0,0,0,0,0,0,0,0,0,0,0,0,0,0,0,0,0,0,0
542,1.9672568,-0.8721139,-0.05388424,-0.047725976,-0.068656296,-0.055677377,-0.004638766,7.7468886,6.6088943,0,1,0,0,0,0,0,0,0,0,0,0,0,0,0,0,0,0,0,0,0
543,1.9682024,-0.868982,-0.0573249,-0.043464918,-0.18477012,0.0497838,0.20844519,7.791181,6.934506,0,1,0,0,0,0,0,0,0,0,0,0,0,0,0,0,0,0,0,0,0
544,1.9700341,-0.8699974,-0.06346272,0.16319638,-0.13257216,0.012499547,0.59750295,7.799561,7.6862855,0,1,0,0,0,0,0,0,0,0,0,0,0,0,0,0,0,0,0,0,0
545,1.9758536,-0.8788752,-0.07433001,0.2548091,-0.4425641,-0.14942065,1.3947722,7.6187987,6.836344,0,1,0,0,0,0,0,0,0,0,0,0,0,0,0,0,0,0,0,0,0
546,2.008533,-0.88306904,-0.08027239,0.21859013,-0.43297672,-0.46899998,2.2890065,6.7245646,7.1296334,0,1,0,0,0,0,0,0,0,0,0,0,0,0,0,0,0,0,0,0,0
547,2.116721,-0.89832306,-0.037876736,0.6265864,-0.35734296,-1.613094,4.6999674,4.222624,6.733393,0,1,0,0,0,0,0,0,0,0,0,0,0,0,0,0,0,0,0,0,0
548,2.146031,-0.8827891,-0.060229827,0.2345691,-0.08676579,-3.7766461,5.7390513,0.76659346,2.530372,0,1,0,0,0,0,0,0,0,0,0,0,0,0,0,0,0,0,0,0,0
549,2.3903966,-0.84970915,0.09869333,0.16105707,1.4163151,-6.51863,2.8600235,-4.1259575,3.0008326,0,1,0,0,0,0,0,0,0,0,0,0,0,0,0,0,0,0,0,0,0
550,2.7290616,-0.78731203,0.41345146,0.48170164,2.8086157,-8.15168,-6.1996355,2.0989666,4.081815,0,1,0,0,0,0,0,0,0,0,0,0,0,0,0,0,0,0,0,0,0
551,3.053007,-0.6590048,0.7544754,1.5501618,3.510625,-7.3186436,-8.007258,0.5726631,4.540304,0,1,0,0,0,0,0,0,0,0,0,0,0,0,0,0,0,0,0,0,0
552,-3.0290506,-0.48875263,0.9309144,-0.086084284,0.45757714,-6.776424,-14.566174,5.1587563,6.0175266,0,1,0,0,0,0,0,0,0,0,0,0,0,0,0,0,0,0,0,0,0
553,-2.9114993,-0.35450932,1.0246028,1.9368528,1.3321593,-4.0962186,-16.600048,7.9982796,2.1556795,0,1,0,0,0,0,0,0,0,0,0,0,0,0,0,0,0,0,0,0,0
554,-2.8679674,-0.29993975,1.0504922,-0.08501902,-0.8921129,-1.6290662,-15.691448,5.9201126,1.9102737,0,1,0,0,0,0,0,0,0,0,0,0,0,0,0,0,0,0,0,0,0
555,-2.8836646,-0.28752193,1.0321804,-0.08288849,-0.67373365,-0.10893394,-13.901783,3.327192,2.1030068,0,1,0,0,0,0,0,0,0,0,0,0,0,0,0,0,0,0,0,0,0
556,-2.9291534,-0.312731,1.036375,-0.31192034,0.15184626,1.0298337,-17.282394,6.5952773,3.03076,0,1,0,0,0,0,0,0,0,0,0,0,0,0,0,0,0,0,0,0,0
557,-2.990781,-0.42077434,1.0588502,0.23669083,1.202197,3.6045778,-19.984251,8.812308,7.906552,0,1,0,0,0,0,0,0,0,0,0,0,0,0,0,0,0,0,0,0,0
558,-2.9893432,-0.41565144,1.057104,0.8066073,-0.46707237,5.704214,-12.872275,2.589778,8.792406,0,1,0,0,0,0,0,0,0,0,0,0,0,0,0,0,0,0,0,0,0
559,-3.08698,-0.59073645,0.98283017,0.46039638,-3.0716438,6.0216627,-10.382306,4.6056957,4.21589,0,1,0,0,0,0,0,0,0,0,0,0,0,0,0,0,0,0,0,0,0
560,3.0334427,-0.7591322,0.7957047,0.4572006,-2.2109103,7.128473,-8.118588,5.593304,-1.7085621,0,1,0,0,0,0,0,0,0,0,0,0,0,0,0,0,0,0,0,0,0
561,2.7521465,-0.88826406,0.522953,0.30699828,-0.21993104,7.5631003,-0.13871406,-3.0042741,1.7414825,0,1,0,0,0,0,0,0,0,0,0,0,0,0,0,0,0,0,0,0,0
562,2.445769,-0.94771504,0.22199179,-0.6698492,-1.0487068,4.7369537,3.8572085,-0.20664953,2.483685,0,1,0,0,0,0,0,0,0,0,0,0,0,0,0,0,0,0,0,0,0
563,2.245562,-0.9159981,-0.017980697,-0.8136599,-1.1190143,3.5875337,5.1105733,3.3547256,4.5450926,0,1,0,0,0,0,0,0,0,0,0,0,0,0,0,0,0,0,0,0,0
564,2.1143441,-0.9013664,-0.15929414,0.28143194,0.40218338,2.4295912,5.29373,4.430919,3.7837365,0,1,0,0,0,0,0,0,0,0,0,0,0,0,0,0,0,0,0,0,0
565,2.0583124,-0.9014008,-0.19647707,0.25693086,1.0424073,1.1523391,4.5108256,5.8339214,4.564246,0,1,0,0,0,0,0,0,0,0,0,0,0,0,0,0,0,0,0,0,0
566,2.062875,-0.8806049,-0.19885263,-0.5558646,0.13586836,0.17975192,2.7307367,7.455993,6.4664397,0,0,0,0,0,0,0,0,0,0,0,0,0,0,0,0,0,0,0,0,0
567,2.0638905,-0.8814377,-0.20018244,-0.43442443,-0.21886471,-0.015191469,1.7527053,8.818294,6.4496803,0,0,0,0,0,0,0,0,0,0,0,0,0,0,0,0,0,0,0,0,0
568,2.0659294,-0.87252825,-0.2078281,0.0470751,0.40218446,-0.09615157,2.6780643,8.194604,4.974852,0,0,0,0,0,0,0,0,0,0,0,0,0,0,0,0,0,0,0,0,0
569,2.0824273,-0.8743639,-0.1901373,-0.14893356,0.404315,-0.7129397,2.7917888,7.123199,6.212654,0,0,0,0,0,0,0,0,0,0,0,0,0,0,0,0,0,0,0,0,0
570,2.1331613,-0.8733517,-0.14506488,0.08329409,0.0953883,-1.1656771,1.0344448,7.928848,6.602909,0,0,0,0,0,0,0,0,0,0,0,0,0,0,0,0,0,0,0,0,0
571,2.184143,-0.8954459,-0.08791846,0.69262534,0.5449299,-0.9845821,-0.30391398,9.435998,5.092168,0,0,0,0,0,0,0,0,0,0,0,0,0,0,0,0,0,0,0,0,0
572,2.2101,-0.9253324,-0.037419666,0.39541656,0.46823084,-0.65328485,0.3628712,8.386141,3.9237974,0,0,0,0,0,0,0,0,0,0,0,0,0,0,0,0,0,0,0,0,0
573,2.2490327,-0.9232436,0.0034489497,-0.2767653,-0.009007609,-0.7938998,-0.69416887,8.374169,5.0191445,0,0,0,0,0,0,0,0,0,0,0,0,0,0,0,0,0,0,0,0,0
574,2.274013,-0.9225291,0.03083726,-0.054125022,-0.014333932,-0.45834148,-1.2400469,9.100809,5.0131593,0,0,0,0,0,0,0,0,0,0,0,0,0,0,0,0,0,0,0,0,0
575,2.280075,-0.9187319,0.037790865,-0.16810831,-0.06440136,-0.18563378,-0.4846762,8.187422,5.014356,0,0,0,0,0,0,0,0,0,0,0,0,0,0,0,0,0,0,0,0,0
576,2.285477,-0.917756,0.04651967,-0.0786261,-0.027117105,-0.1494148,-1.0784383,8.413673,5.1843443,0,0,0,0,0,0,0,0,0,0,0,0,0,0,0,0,0,0,0,0,0
577,2.2832963,-0.9193471,0.04846383,0.016182432,0.09751883,0.0018527611,-0.7731775,8.3574095,5.342362,0,0,0,0,0,0,0,0,0,0,0,0,0,0,0,0,0,0,0,0,0
578,2.2794194,-0.9210082,0.050804555,-0.033884995,-0.1858415,0.07002968,-0.4643255,8.186225,5.118504,0,0,0,0,0,0,0,0,0,0,0,0,0,0,0,0,0,0,0,0,0
579,2.2721398,-0.92099935,0.04017916,-0.124432474,-0.12512143,0.11050973,-0.26680386,8.520216,5.0394955,0,0,0,0,0,0,0,0,0,0,0,0,0,0,0,0,0,0,0,0,0
580,2.2667015,-0.9177881,0.03225256,-0.14680302,-0.0601403,0.025288578,0.070778586,8.108413,5.5267153,0,0,0,0,0,0,0,0,0,0,0,0,0,0,0,0,0,0,0,0,0
581,2.2667718,-0.91416055,0.029491745,-0.16065146,-0.13577408,-0.019452527,-0.17582418,8.515428,5.4836197,0,0,0,0,0,0,0,0,0,0,0,0,0,0,0,0,0,0,0,0,0
582,2.2631893,-0.9143752,0.026705002,-0.0072533856,-0.012203403,0.030614901,-0.25722703,8.527398,5.252579,0,0,0,0,0,0,0,0,0,0,0,0,0,0,0,0,0,0,0,0,0
583,2.2598732,-0.91848284,0.02847746,0.08755755,0.11989152,0.04126568,-0.08125322,8.332271,5.4548893,0,0,0,0,0,0,0,0,0,0,0,0,0,0,0,0,0,0,0,0,0
584,2.2611752,-0.9214028,0.027195614,0.051338553,-0.03350656,-0.03330283,0.30062196,7.9120884,5.3950343,0,0,0,0,0,0,0,0,0,0,0,0,0,0,0,0,0,0,0,0,0
585,2.2665715,-0.92482907,0.034049377,0.039620645,-0.015397065,-0.15900403,-0.23567922,8.284387,4.906617,0,0,0,0,0,0,0,0,0,0,0,0,0,0,0,0,0,0,0,0,0
586,2.2632945,-0.92689776,0.034587372,0.0769049,0.1593063,-0.074848145,-0.30870238,8.406491,5.058649,0,0,0,0,0,0,0,0,0,0,0,0,0,0,0,0,0,0,0,0,0
587,2.266617,-0.92942274,0.042398605,-0.093537405,-0.12405404,-0.018389126,-0.25842413,8.103624,5.535095,0,0,0,0,0,0,0,0,0,0,0,0,0,0,0,0,0,0,0,0,0
588,2.2679486,-0.9264131,0.03599257,-0.034947865,-0.21673204,-0.06952182,0.07436989,7.967155,5.532701,0,0,0,0,0,0,0,0,0,0,0,0,0,0,0,0,0,0,0,0,0
589,2.269417,-0.9292485,0.035365395,0.01618483,-0.11659718,-0.120654516,-0.37334582,8.611196,4.9509096,0,0,0,0,0,0,0,0,0,0,0,0,0,0,0,0,0,0,0,0,0
590,2.267219,-0.93115973,0.03387112,-0.04133945,-0.02604971,0.08920258,-0.16744448,8.381352,5.0394955,0,1,0,0,0,0,0,0,0,0,0,0,0,0,0,0,0,0,0,0,0
591,2.2602396,-0.93027425,0.027104273,-0.053057358,0.024017718,0.091333106,0.17133506,7.836671,5.271733,0,1,0,0,0,0,0,0,0,0,0,0,0,0,0,0,0,0,0,0,0
592,2.2578156,-0.9327727,0.028552406,0.06412173,0.1326747,-0.037563886,0.11387422,7.999477,5.0155535,0,1,0,0,0,0,0,0,0,0,0,0,0,0,0,0,0,0,0,0,0
593,2.2624407,-0.93843096,0.04448612,0.14827761,0.3212265,-0.1121324,-0.38292262,8.383746,5.357924,0,1,0,0,0,0,0,0,0,0,0,0,0,0,0,0,0,0,0,0,0
594,2.262083,-0.9415922,0.05222287,0.051338553,0.13693574,-0.0311723,-0.70494276,8.700978,5.3627124,0,1,0,0,0,0,0,0,0,0,0,0,0,0,0,0,0,0,0,0,0
595,2.258614,-0.9391364,0.041173823,-0.10099426,-0.23484154,0.054048855,-0.10160393,8.386141,5.617695,0,1,0,0,0,0,0,0,0,0,0,0,0,0,0,0,0,0,0,0,0
596,2.2620618,-0.93888336,0.038666327,-0.12975639,-0.46919972,-0.074848145,0.502932,7.9599724,5.958869,0,1,0,0,0,0,0,0,0,0,0,0,0,0,0,0,0,0,0,0,0
597,2.2736201,-0.9350813,0.023027977,0.085427016,-0.4968966,-0.31133685,1.0679636,7.5804915,5.6392426,0,1,0,0,0,0,0,0,0,0,0,0,0,0,0,0,0,0,0,0,0
598,2.324267,-0.9321833,0.004550416,-0.076493174,-0.7973012,-1.1667442,5.191976,4.5183077,3.3575685,0,1,0,0,0,0,0,0,0,0,0,0,0,0,0,0,0,0,0,0,0
599,2.4484868,-0.9032961,0.029260406,-0.97132033,-0.47666082,-3.698874,6.6189203,0.65047467,1.2063783,0,1,0,0,0,0,0,0,0,0,0,0,0,0,0,0,0,0,0,0,0
600,2.7155595,-0.811391,0.21832123,-0.90846974,1.5473416,-6.2864013,2.379986,-2.8893526,2.2191257,0,1,0,0,0,0,0,0,0,0,0,0,0,0,0,0,0,0,0,0,0
601,3.0303254,-0.68849105,0.5253585,-0.3864902,2.7340462,-7.844883,-5.0133085,0.48048636,4.760571,0,1,0,0,0,0,0,0,0,0,0,0,0,0,0,0,0,0,0,0,0
602,-2.9922416,-0.53125316,0.7958286,0.69262266,3.2400467,-7.517847,-6.8616323,-0.9883564,5.7062807,0,1,0,0,0,0,0,0,0,0,0,0,0,0,0,0,0,0,0,0,0
603,-2.832084,-0.33543012,0.907451,-0.48342925,0.82083124,-7.1599183,-12.61011,3.2122705,5.7433906,0,1,0,0,0,0,0,0,0,0,0,0,0,0,0,0,0,0,0,0,0
604,-2.729845,-0.23825148,1.0084685,1.254017,1.6964786,-4.5691953,-19.942354,9.014618,3.5682583,0,1,0,0,0,0,0,0,0,0,0,0,0,0,0,0,0,0,0,0,0
605,-2.7468483,-0.23891784,1.0162127,-0.45466712,-0.6375157,-1.7718107,-16.926857,4.786458,2.994847,0,1,0,0,0,0,0,0,0,0,0,0,0,0,0,0,0,0,0,0,0
606,-2.7506206,-0.18446302,0.9895431,-0.6421536,-1.1765395,-0.063126504,-13.005154,2.0618565,4.736629,0,1,0,0,0,0,0,0,0,0,0,0,0,0,0,0,0,0,0,0,0
607,-2.7736158,-0.1741295,0.95667577,-0.14574042,-0.58425254,0.4311562,-11.280131,-0.22340895,3.9010525,0,1,0,0,0,0,0,0,0,0,0,0,0,0,0,0,0,0,0,0,0
608,-2.7905116,-0.1801191,0.9401797,0.030028207,-0.14536358,0.5291605,-13.171551,2.1456537,6.294057,0,1,0,0,0,0,0,0,0,0,0,0,0,0,0,0,0,0,0,0,0
609,-2.794949,-0.21145685,0.94017804,0.6755785,-0.304088,1.3227825,-15.390976,5.3981767,8.2716675,0,1,0,0,0,0,0,0,0,0,0,0,0,0,0,0,0,0,0,0,0
610,-2.8124769,-0.29143575,0.9169269,1.4191331,-0.95176876,3.157168,-15.181483,7.041796,7.1547723,0,1,0,0,0,0,0,0,0,0,0,0,0,0,0,0,0,0,0,0,0
611,-2.8709402,-0.44492114,0.87584573,1.898502,-0.71208423,5.0405555,-12.666374,5.4412723,5.082591,0,1,0,0,0,0,0,0,0,0,0,0,0,0,0,0,0,0,0,0,0
612,-2.9766407,-0.63104314,0.8145148,1.8814578,-0.56614304,6.025925,-9.330054,3.5558383,3.7262757,0,1,0,0,0,0,0,0,0,0,0,0,0,0,0,0,0,0,0,0,0
613,3.1216323,-0.77727944,0.67275715,0.6649258,-1.133929,6.0610785,-5.821352,2.6280854,1.5774796,0,1,0,0,0,0,0,0,0,0,0,0,0,0,0,0,0,0,0,0,0
614,2.870242,-0.867171,0.44326663,-0.33642277,-1.4588346,5.84483,-1.574038,1.6811785,1.5415666,0,1,0,0,0,0,0,0,0,0,0,0,0,0,0,0,0,0,0,0,0
615,2.8840344,-0.8614159,0.41817006,-0.3832944,-0.28171742,4.951073,2.0507834,1.8499697,1.9461867,0,1,0,0,0,0,0,0,0,0,0,0,0,0,0,0,0,0,0,0,0
616,2.6537423,-0.8890732,0.212681,0.05346802,1.0221695,3.3446515,3.638139,1.3962685,4.734235,0,1,0,0,0,0,0,0,0,0,0,0,0,0,0,0,0,0,0,0,0
617,2.5285566,-0.9007991,0.122402735,-0.28209028,0.41603395,1.4388934,3.7327101,4.378247,5.381866,0,1,0,0,0,0,0,0,0,0,0,0,0,0,0,0,0,0,0,0,0
618,2.4835362,-0.8882993,0.07143048,-0.50366527,-0.13257721,0.4631112,2.2279544,7.1483383,5.372289,0,0,0,0,0,0,0,0,0,0,0,0,0,0,0,0,0,0,0,0,0
619,2.4695983,-0.8807349,0.06307341,-0.17236803,0.492733,0.15311925,0.3664625,8.876952,5.1951184,0,0,0,0,0,0,0,0,0,0,0,0,0,0,0,0,0,0,0,0,0
620,2.4628074,-0.8802426,0.076803215,-0.050927896,0.62163,0.12116131,0.33773208,7.930045,6.15639,0,0,0,0,0,0,0,0,0,0,0,0,0,0,0,0,0,0,0,0,0
621,2.4820821,-0.8726178,0.08636468,-0.25332814,-0.03883395,-0.41573197,0.56996965,7.365013,5.7517705,0,0,0,0,0,0,0,0,0,0,0,0,0,0,0,0,0,0,0,0,0
622,2.5100117,-0.86812514,0.114221275,-0.10525638,0.079410404,-0.59363115,-1.870919,9.790339,5.2418056,0,0,0,0,0,0,0,0,0,0,0,0,0,0,0,0,0,0,0,0,0
623,2.5131097,-0.87993324,0.14463428,0.29741356,0.67169744,-0.0791084,-1.7895161,9.159468,5.7374053,0,0,0,0,0,0,0,0,0,0,0,0,0,0,0,0,0,0,0,0,0
624,2.5125604,-0.8809124,0.14533338,0.02470588,0.061300907,-0.1089358,-1.0796354,8.085668,5.946898,0,0,0,0,0,0,0,0,0,0,0,0,0,0,0,0,0,0,0,0,0
625,2.5139616,-0.8829018,0.15190443,0.009792177,-0.22418995,-0.24955072,-1.3346179,8.418462,4.6731825,0,0,0,0,0,0,0,0,0,0,0,0,0,0,0,0,0,0,0,0,0
626,2.5183392,-0.887065,0.16014771,0.17384289,0.23706953,0.009308547,-1.6207249,9.026589,4.2314525,0,0,0,0,0,0,0,0,0,0,0,0,0,0,0,0,0,0,0,0,0
627,2.5107534,-0.8958635,0.16864477,0.08542595,0.18913265,0.19892561,-0.92281514,7.719355,5.0335097,0,0,0,0,0,0,0,0,0,0,0,0,0,0,0,0,0,0,0,0,0
628,2.4995637,-0.8969447,0.15918626,-0.19260806,-0.30515006,0.017830662,-0.70853406,7.7456913,4.5666404,0,0,0,0,0,0,0,0,0,0,0,0,0,0,0,0,0,0,0,0,0
629,2.4927657,-0.8930628,0.15053982,-0.20965229,-0.11979405,-0.03330203,-0.8773253,8.185027,4.2685623,0,0,0,0,0,0,0,0,0,0,0,0,0,0,0,0,0,0,0,0,0
630,2.489538,-0.8902635,0.15667787,-0.11484376,0.3009854,0.019961191,-1.0305542,8.127566,5.2657475,0,0,0,0,0,0,0,0,0,0,0,0,0,0,0,0,0,0,0,0,0
631,2.4873207,-0.8890506,0.1623295,-0.086081624,0.14971785,0.028483307,-1.0796354,8.191013,5.7158575,0,0,0,0,0,0,0,0,0,0,0,0,0,0,0,0,0,0,0,0,0
632,2.4862587,-0.88709575,0.16002999,-0.113778494,-0.07505294,-0.0162578,-0.96231943,8.236503,5.4369326,0,0,0,0,0,0,0,0,0,0,0,0,0,0,0,0,0,0,0,0,0
633,2.4840522,-0.889277,0.16176845,-0.091418065,-0.007949536,-0.04181642,-1.3573627,8.575282,5.38426,0,0,0,0,0,0,0,0,0,0,0,0,0,0,0,0,0,0,0,0,0
634,2.4833736,-0.888576,0.16517407,-0.030697992,0.11242534,0.084950045,-1.408838,8.563312,5.497985,0,0,0,0,0,0,0,0,0,0,0,0,0,0,0,0,0,0,0,0,0
635,2.4774592,-0.88862646,0.16517031,-0.0019358518,-0.05269064,0.1850849,-1.3980641,8.584859,6.070199,0,0,0,0,0,0,0,0,0,0,0,0,0,0,0,0,0,0,0,0,0
636,2.465234,-0.893013,0.15323433,0.07476319,-0.15921709,0.24580498,-0.93478614,8.359804,5.4800286,0,0,0,0,0,0,0,0,0,0,0,0,0,0,0,0,0,0,0,0,0
637,2.4524026,-0.8994395,0.13835281,0.08435056,-0.118737034,0.16804066,-0.4834791,8.150311,5.175965,0,0,0,0,0,0,0,0,0,0,0,0,0,0,0,0,0,0,0,0,0
638,2.445483,-0.9046966,0.13122933,0.06304528,-0.053755905,0.06151423,-0.50263274,8.096442,5.014356,0,0,0,0,0,0,0,0,0,0,0,0,0,0,0,0,0,0,0,0,0
639,2.4415078,-0.90870565,0.12834907,0.071567394,0.01974734,0.07323214,-0.5373486,8.0784855,5.0287213,0,0,0,0,0,0,0,0,0,0,0,0,0,0,0,0,0,0,0,0,0
640,2.439096,-0.91324776,0.12525922,0.09180742,-0.0047537424,0.050861582,-0.39848495,7.8067436,5.320814,0,0,0,0,0,0,0,0,0,0,0,0,0,0,0,0,0,0,0,0,0
641,2.4412305,-0.91729015,0.12446578,0.08222004,-0.077191725,-0.04607748,-0.4834791,7.945607,5.1843443,0,1,0,0,0,0,0,0,0,0,0,0,0,0,0,0,0,0,0,0,0
642,2.4462888,-0.9227974,0.13101281,0.12163482,0.02507366,-0.12916811,-0.50382984,8.157495,4.9688663,0,1,0,0,0,0,0,0,0,0,0,0,0,0,0,0,0,0,0,0,0
643,2.4446313,-0.924382,0.13030678,0.08435056,0.073010564,-0.22610717,-0.4918588,8.315512,5.336376,0,1,0,0,0,0,0,0,0,0,0,0,0,0,0,0,0,0,0,0,0
644,2.458304,-0.9271658,0.1428032,0.16744119,0.014421017,-0.3145241,-0.4547487,8.204181,5.5386863,0,1,0,0,0,0,0,0,0,0,0,0,0,0,0,0,0,0,0,0,0
645,2.4784358,-0.9320232,0.15644814,0.16637594,-0.15495603,-0.46259588,-0.3362357,8.015039,5.432144,0,1,0,0,0,0,0,0,0,0,0,0,0,0,0,0,0,0,0,0,0
646,2.520401,-0.9332593,0.16638865,0.19620334,-0.3680089,-0.96433544,1.4438533,6.1583357,5.5015764,0,1,0,0,0,0,0,0,0,0,0,0,0,0,0,0,0,0,0,0,0
647,2.6245983,-0.9226721,0.20457529,0.07582845,-0.4553606,-2.4216173,3.2000003,4.0083427,4.114136,0,1,0,0,0,0,0,0,0,0,0,0,0,0,0,0,0,0,0,0,0
648,2.8145049,-0.86812794,0.2957405,-0.64215976,-0.299832,-4.165455,4.1780314,0.49844286,1.1333553,0,1,0,0,0,0,0,0,0,0,0,0,0,0,0,0,0,0,0,0,0
649,3.0588105,-0.74519396,0.5053382,-0.8072869,1.7454661,-6.376935,-2.7232547,1.5363293,3.837606,0,1,0,0,0,0,0,0,0,0,0,0,0,0,0,0,0,0,0,0,0
650,-2.9898427,-0.63137066,0.7744695,0.67130005,3.3380365,-6.3780003,-6.819734,4.0753803,5.152023,0,1,0,0,0,0,0,0,0,0,0,0,0,0,0,0,0,0,0,0,0
651,-2.9895248,-0.62035674,0.77639234,0.30378386,1.5441312,-6.079726,-6.480954,0.45055884,5.356727,0,1,0,0,0,0,0,0,0,0,0,0,0,0,0,0,0,0,0,0,0
652,-2.8287,-0.4650865,0.9198927,-0.24695785,0.11135049,-6.0190063,-10.065074,0.73786306,3.8280292,0,1,0,0,0,0,0,0,0,0,0,0,0,0,0,0,0,0,0,0,0
653,-2.7286062,-0.29620886,0.9778428,0.41776714,0.902842,-5.2999525,-14.259716,4.2357917,1.9509751,0,1,0,0,0,0,0,0,0,0,0,0,0,0,0,0,0,0,0,0,0
654,-2.6464038,-0.17579752,1.0506654,0.3144365,0.5992416,-3.0458534,-16.329502,4.4979568,1.9282302,0,1,0,0,0,0,0,0,0,0,0,0,0,0,0,0,0,0,0,0,0
655,-2.624265,-0.10822751,1.0691848,-0.46533707,-0.34777847,-1.3808451,-13.999945,2.9489083,2.4393923,0,1,0,0,0,0,0,0,0,0,0,0,0,0,0,0,0,0,0,0,0
656,-2.6362677,-0.07132671,1.0559809,-0.60062563,-0.20396778,-0.5850925,-10.733057,-1.5426141,3.944148,0,1,0,0,0,0,0,0,0,0,0,0,0,0,0,0,0,0,0,0,0
657,-2.6405745,-0.042144135,1.0619057,-0.2277831,0.31588125,-0.73529476,-12.151621,-0.5849334,5.014356,0,1,0,0,0,0,0,0,0,0,0,0,0,0,0,0,0,0,0,0,0
658,-2.6284623,-0.0396249,1.0836806,0.29739228,0.35529605,0.094546214,-16.067337,3.63365,4.8910546,0,1,0,0,0,0,0,0,0,0,0,0,0,0,0,0,0,0,0,0,0
659,-2.656845,-0.08236105,1.0584034,-0.14256194,-1.0689625,1.6508975,-15.520263,2.9285576,4.274548,0,1,0,0,0,0,0,0,0,0,0,0,0,0,0,0,0,0,0,0,0
660,-2.7078216,-0.15106632,1.0114751,-0.116995595,-1.256449,2.5542417,-13.414562,1.7530046,3.8747163,0,1,0,0,0,0,0,0,0,0,0,0,0,0,0,0,0,0,0,0,0
661,-2.7077649,-0.15331273,1.0137416,1.239086,0.3180118,3.9998057,-15.92608,4.9803886,8.080132,0,1,0,0,0,0,0,0,0,0,0,0,0,0,0,0,0,0,0,0,0
662,-2.74535,-0.28771877,1.0177016,2.572797,0.48951936,5.841648,-15.623214,3.801244,8.35307,0,1,0,0,0,0,0,0,0,0,0,0,0,0,0,0,0,0,0,0,0
663,-2.797021,-0.50587827,1.0041426,1.4627916,-2.4719157,6.3561707,-9.182811,-0.54662615,2.0778677,0,1,0,0,0,0,0,0,0,0,0,0,0,0,0,0,0,0,0,0,0
664,-2.925497,-0.68677115,0.85297394,-0.26932842,-3.669273,5.6744018,-4.554819,2.137274,0.3899556,0,1,0,0,0,0,0,0,0,0,0,0,0,0,0,0,0,0,0,0,0
665,-3.1159487,-0.8010287,0.5817344,0.20258373,-1.9978731,5.2514915,1.1074679,1.0969933,1.153706,0,1,0,0,0,0,0,0,0,0,0,0,0,0,0,0,0,0,0,0,0
666,3.0161245,-0.889585,0.42658025,1.0633272,0.45437416,3.1965885,2.3117514,1.745822,1.7845781,0,1,0,0,0,0,0,0,0,0,0,0,0,0,0,0,0,0,0,0,0
667,2.9302876,-0.93532443,0.37152526,0.16424407,0.29671502,1.6945657,2.8025627,4.3028293,2.198775,0,1,0,0,0,0,0,0,0,0,0,0,0,0,0,0,0,0,0,0,0
668,2.8906708,-0.92780125,0.31630185,-0.53563464,-0.002624279,0.5472759,0.3820248,7.145944,3.9166148,0,1,0,0,0,0,0,0,0,0,0,0,0,0,0,0,0,0,0,0,0
669,2.8802433,-0.9305494,0.31714585,-0.12870365,0.66742706,0.2585892,-0.6594529,8.066514,3.5024178,0,0,0,0,0,0,0,0,0,0,0,0,0,0,0,0,0,0,0,0,0
670,2.8828592,-0.9316652,0.31802705,-0.10207204,0.81762934,0.17549859,-1.8649335,7.976732,4.9365444,0,0,0,0,0,0,0,0,0,0,0,0,0,0,0,0,0,0,0,0,0
671,2.862988,-0.9173221,0.3344659,-0.44615245,0.1358601,0.04660159,-2.6598084,8.553735,4.946121,0,0,0,0,0,0,0,0,0,0,0,0,0,0,0,0,0,0,0,0,0
672,2.8642797,-0.91827905,0.33730188,-0.39608502,0.097510576,0.14354065,-2.7424085,8.638729,5.391443,0,0,0,0,0,0,0,0,0,0,0,0,0,0,0,0,0,0,0,0,0
673,2.8509483,-0.9104259,0.33354998,-0.101006776,0.34678245,0.21917443,-2.7304375,8.507048,5.3267994,0,0,0,0,0,0,0,0,0,0,0,0,0,0,0,0,0,0,0,0,0
674,2.8396893,-0.91365355,0.34345186,-8.719189E-4,0.3425214,0.24793656,-3.1338603,8.675838,5.1747675,0,0,0,0,0,0,0,0,0,0,0,0,0,0,0,0,0,0,0,0,0
675,2.8238177,-0.91700906,0.3417957,-0.13189945,-0.035647478,0.37150723,-2.9339445,8.734497,5.034707,0,0,0,0,0,0,0,0,0,0,0,0,0,0,0,0,0,0,0,0,0
676,2.7931137,-0.9162328,0.31343773,-0.26931855,-0.17732765,0.6058654,-2.6274867,9.1451025,4.941333,0,0,0,0,0,0,0,0,0,0,0,0,0,0,0,0,0,0,0,0,0
677,2.750797,-0.9245665,0.28277487,0.03002075,0.18060121,0.8966826,-1.8397944,8.019828,5.4489036,0,0,0,0,0,0,0,0,0,0,0,0,0,0,0,0,0,0,0,0,0
678,2.712084,-0.935337,0.24951014,0.07582712,-0.009015866,0.81146145,-1.6291046,8.06412,5.0035825,0,0,0,0,0,0,0,0,0,0,0,0,0,0,0,0,0,0,0,0,0
679,2.6671307,-0.9410115,0.21132971,-0.099941514,-0.12406442,0.7880256,-1.3944728,8.613589,4.3356,0,0,0,0,0,0,0,0,0,0,0,0,0,0,0,0,0,0,0,0,0
680,2.669403,-0.9425964,0.2110273,-0.057330932,0.1358601,0.7890909,-0.9790788,8.181437,4.9257708,0,0,0,0,0,0,0,0,0,0,0,0,0,0,0,0,0,0,0,0,0
681,2.6254048,-0.94853103,0.18349965,0.10245873,0.2881929,0.67404234,-1.254412,8.507048,4.871901,0,0,0,0,0,0,0,0,0,0,0,0,0,0,0,0,0,0,0,0,0
682,2.584739,-0.95917636,0.1626361,-0.013655092,0.12627272,0.65806335,-0.7719804,8.392126,3.9968204,0,0,0,0,0,0,0,0,0,0,0,0,0,0,0,0,0,0,0,0,0
683,2.5493023,-0.9593394,0.13302845,-0.20433477,0.13905802,0.52596843,-0.26680386,8.011448,4.9449244,0,0,0,0,0,0,0,0,0,0,0,0,0,0,0,0,0,0,0,0,0
684,2.5274024,-0.95759624,0.11962404,0.0055223308,0.28180346,0.33102506,-0.5313631,8.114398,5.420173,0,0,0,0,0,0,0,0,0,0,0,0,0,0,0,0,0,0,0,0,0
685,2.5161297,-0.9648382,0.114976734,0.12270142,0.1007085,0.16377854,-0.07646482,7.77921,4.9269676,0,0,0,0,0,0,0,0,0,0,0,0,0,0,0,0,0,0,0,0,0
686,2.5195208,-0.965164,0.10789113,-0.056263007,-0.21887083,-0.06631857,0.034865562,7.6978073,4.6588173,0,1,0,0,0,0,0,0,0,0,0,0,0,0,0,0,0,0,0,0,0
687,2.527068,-0.9628225,0.112007275,-0.12443993,-0.10488753,-0.21865138,-0.5469254,8.511836,4.085406,0,1,0,0,0,0,0,0,0,0,0,0,0,0,0,0,0,0,0,0,0
688,2.5380957,-0.97150975,0.13684328,0.26970792,0.5172269,-0.18030186,-0.39369655,8.141932,4.9940057,0,1,0,0,0,0,0,0,0,0,0,0,0,0,0,0,0,0,0,0,0
689,2.539295,-0.9719333,0.13532121,0.14826776,0.22747497,-0.30600306,-0.32067338,8.096442,5.27293,0,1,0,0,0,0,0,0,0,0,0,0,0,0,0,0,0,0,0,0,0
690,2.564821,-0.97595686,0.1480551,-0.10100411,-0.33285412,-0.6096034,0.98177236,7.393744,3.884293,0,1,0,0,0,0,0,0,0,0,0,0,0,0,0,0,0,0,0,0,0
691,2.6215043,-0.96866906,0.1543336,-0.48662984,-0.13151914,-1.6237352,2.032827,6.506692,3.291728,0,1,0,0,0,0,0,0,0,0,0,0,0,0,0,0,0,0,0,0,0
692,2.735178,-0.9346814,0.20924342,-0.6347016,0.43733206,-2.8104398,3.5495536,3.0913632,2.104204,0,1,0,0,0,0,0,0,0,0,0,0,0,0,0,0,0,0,0,0,0
693,2.9269927,-0.83685535,0.33462512,-2.127137,-0.014340057,-4.946295,2.9378352,-0.75971013,2.3974938,0,1,0,0,0,0,0,0,0,0,0,0,0,0,0,0,0,0,0,0,0
694,3.1291943,-0.6774276,0.49779555,-1.5241973,2.032033,-6.303442,-4.52968,2.2186768,5.356727,0,1,0,0,0,0,0,0,0,0,0,0,0,0,0,0,0,0,0,0,0
695,-2.9381654,-0.5613133,0.76786554,1.0494815,4.241391,-6.0605617,-6.7766385,2.1660044,5.5626283,0,1,0,0,0,0,0,0,0,0,0,0,0,0,0,0,0,0,0,0,0
696,-2.7947035,-0.39846933,0.89712447,-0.58143836,1.0796865,-6.0371256,-8.641722,0.22071546,5.405808,0,1,0,0,0,0,0,0,0,0,0,0,0,0,0,0,0,0,0,0,0
697,-2.7064674,-0.25178146,0.955986,-0.46106347,0.71536607,-5.1497602,-14.392594,4.654777,6.5370684,0,1,0,0,0,0,0,0,0,0,0,0,0,0,0,0,0,0,0,0,0
698,-2.6247234,-0.19705383,1.0361603,1.5288504,1.5547944,-3.0160358,-16.09128,5.1455884,4.274548,0,1,0,0,0,0,0,0,0,0,0,0,0,0,0,0,0,0,0,0,0
699,-2.64142,-0.1966868,1.0428791,-0.056271795,-0.53100073,-1.4447638,-14.308797,2.636465,2.8811226,0,1,0,0,0,0,0,0,0,0,0,0,0,0,0,0,0,0,0,0,0
700,-2.6378443,-0.15570593,1.028564,-0.17132035,-0.40956062,-0.5488764,-11.96248,1.0359411,3.2857425,0,1,0,0,0,0,0,0,0,0,0,0,0,0,0,0,0,0,0,0,0
701,-2.643684,-0.14124274,1.0240731,-0.17664668,-0.25083622,-0.21012235,-12.149227,1.6404771,3.5945945,0,1,0,0,0,0,0,0,0,0,0,0,0,0,0,0,0,0,0,0,0
702,-2.657176,-0.13843411,1.0230074,0.10777893,-0.07293706,0.3725773,-12.584971,2.1887493,4.0411134,0,1,0,0,0,0,0,0,0,0,0,0,0,0,0,0,0,0,0,0,0
703,-2.6781209,-0.15628329,1.0185835,-0.19582143,-0.48839018,0.7795083,-11.353155,1.3890859,3.4605193,0,1,0,0,0,0,0,0,0,0,0,0,0,0,0,0,0,0,0,0,0
704,-2.7125976,-0.17777507,1.0044541,-0.20540881,-0.20716037,1.1140014,-11.970859,2.4413376,4.2613797,0,1,0,0,0,0,0,0,0,0,0,0,0,0,0,0,0,0,0,0,0
705,-2.7426622,-0.22663786,1.0048192,0.13441055,0.06128626,1.7883137,-12.496387,3.5175312,5.130475,0,1,0,0,0,0,0,0,0,0,0,0,0,0,0,0,0,0,0,0,0
706,-2.776457,-0.31523654,1.0114642,0.7863524,0.45969516,2.9473214,-13.322386,4.5099277,5.590162,0,1,0,0,0,0,0,0,0,0,0,0,0,0,0,0,0,0,0,0,0
707,-2.8229113,-0.44943866,1.0058013,1.1709129,0.24557701,4.1127205,-13.685107,4.3435307,6.507141,0,1,0,0,0,0,0,0,0,0,0,0,0,0,0,0,0,0,0,0,0
708,-2.8299434,-0.4459632,1.0092447,1.2295023,-0.7067694,5.225922,-11.933749,3.6540008,4.9449244,0,1,0,0,0,0,0,0,0,0,0,0,0,0,0,0,0,0,0,0,0
709,-2.9259694,-0.6132529,0.94759023,0.37942135,-1.5696336,5.82247,-9.680805,4.9420815,0.501286,0,1,0,0,0,0,0,0,0,0,0,0,0,0,0,0,0,0,0,0,0
710,-3.0938604,-0.7656223,0.8079252,-0.22777937,-0.9794771,6.584134,-4.4315176,2.267758,0.3875614,0,1,0,0,0,0,0,0,0,0,0,0,0,0,0,0,0,0,0,0,0
711,2.9362733,-0.8731348,0.56219643,-0.59423035,-0.63539666,5.846971,2.3261166,-1.6347909,3.146879,0,1,0,0,0,0,0,0,0,0,0,0,0,0,0,0,0,0,0,0,0
712,2.7061775,-0.9057485,0.3242621,-0.67412513,-0.79518634,3.243465,5.129727,0.78694415,4.701913,0,1,0,0,0,0,0,0,0,0,0,0,0,0,0,0,0,0,0,0,0
713,2.6248963,-0.9051177,0.21274981,-0.18942985,0.012284096,1.3249238,4.181623,5.802797,4.3774986,0,0,0,0,0,0,0,0,0,0,0,0,0,0,0,0,0,0,0,0,0
714,2.6035202,-0.9206052,0.21043102,0.57756054,1.4024541,0.39175206,2.1250036,6.9041295,5.5159416,0,0,0,0,0,0,0,0,0,0,0,0,0,0,0,0,0,0,0,0,0
715,2.6220903,-0.9402072,0.25306943,0.5296236,1.0903317,-0.10998749,0.7471406,8.156297,5.656002,0,0,0,0,0,0,0,0,0,0,0,0,0,0,0,0,0,0,0,0,0
716,2.6440146,-0.9371363,0.2628957,-0.042428415,-0.006894658,-0.35605985,-0.046537295,8.17545,5.192724,0,0,0,0,0,0,0,0,0,0,0,0,0,0,0,0,0,0,0,0,0
717,2.6630068,-0.93218166,0.27507263,-0.11912745,-0.26255813,-0.4775,-1.6614263,9.160665,4.525939,0,0,0,0,0,0,0,0,0,0,0,0,0,0,0,0,0,0,0,0,0
718,2.6575036,-0.93504256,0.2783859,0.1067086,0.09963179,-0.3177103,-2.0636523,8.948778,4.3751044,0,0,0,0,0,0,0,0,0,0,0,0,0,0,0,0,0,0,0,0,0
719,2.671702,-0.9377932,0.30206752,0.21962664,0.10389284,-0.28468713,-2.7064953,8.709357,4.7689505,0,0,0,0,0,0,0,0,0,0,0,0,0,0,0,0,0,0,0,0,0
720,2.6835437,-0.944678,0.323228,0.14825392,-0.25190547,-0.16644277,-2.785504,8.975114,4.051887,0,0,0,0,0,0,0,0,0,0,0,0,0,0,0,0,0,0,0,0,0
721,2.6830943,-0.94923913,0.3235005,-0.031775773,-0.36269298,-0.02156681,-2.4491186,8.83625,3.5838206,0,0,0,0,0,0,0,0,0,0,0,0,0,0,0,0,0,0,0,0,0
722,2.6737444,-0.9514932,0.32034823,-0.052015796,-0.049505234,0.07537225,-2.3964462,8.967932,3.4784758,0,0,0,0,0,0,0,0,0,0,0,0,0,0,0,0,0,0,0,0,0
723,2.6600575,-0.95319396,0.31859985,0.016161127,0.22746351,0.25753248,-2.3533506,8.513033,4.8311996,0,0,0,0,0,0,0,0,0,0,0,0,0,0,0,0,0,0,0,0,0
724,2.647665,-0.96313304,0.3144398,0.17808132,0.09430546,0.22557454,-1.6518495,7.964761,4.4792523,0,0,0,0,0,0,0,0,0,0,0,0,0,0,0,0,0,0,0,0,0
725,2.6365905,-0.96761614,0.30880597,-0.024318922,-0.10702951,0.114787035,-1.7272669,8.856601,4.0195656,0,0,0,0,0,0,0,0,0,0,0,0,0,0,0,0,0,0,0,0,0
726,2.618919,-0.963728,0.29200208,-0.24908972,-0.13472639,0.20533451,-1.5453075,8.6040125,4.511574,0,0,0,0,0,0,0,0,0,0,0,0,0,0,0,0,0,0,0,0,0
727,2.6196847,-0.9646445,0.29188773,0.05983697,0.14224236,0.20107345,-1.4926351,8.407688,5.07062,0,0,0,0,0,0,0,0,0,0,0,0,0,0,0,0,0,0,0,0,0
728,2.6076047,-0.97305405,0.2909796,0.19086449,0.09217493,0.18083343,-1.3944728,8.648306,4.263774,0,0,0,0,0,0,0,0,0,0,0,0,0,0,0,0,0,0,0,0,0
729,2.5966125,-0.98207504,0.284885,-0.12125798,-0.18159802,0.114787035,-0.9144354,8.268825,4.0052004,0,1,0,0,0,0,0,0,0,0,0,0,0,0,0,0,0,0,0,0,0
730,2.5883489,-0.97936463,0.27364033,-0.04349368,0.08578335,-0.07163424,-1.194557,8.5681,4.332009,0,1,0,0,0,0,0,0,0,0,0,0,0,0,0,0,0,0,0,0,0
731,2.595877,-0.9866126,0.29309055,0.38367736,0.46927854,-0.06417739,-1.1406875,8.84463,4.7809215,0,1,0,0,0,0,0,0,0,0,0,0,0,0,0,0,0,0,0,0,0
732,2.605102,-0.9946221,0.29733124,0.021487448,-0.24977495,-0.1717691,-0.15667057,8.600421,4.171597,0,1,0,0,0,0,0,0,0,0,0,0,0,0,0,0,0,0,0,0,0
733,2.6393702,-0.98675394,0.28469878,-0.13296577,-0.45749325,-0.6309058,1.4426562,7.3698015,4.072238,0,1,0,0,0,0,0,0,0,0,0,0,0,0,0,0,0,0,0,0,0
734,2.7466462,-0.9658304,0.33437216,0.011910189,-0.1027602,-1.8889831,3.2466872,5.4340897,3.8902786,0,1,0,0,0,0,0,0,0,0,0,0,0,0,0,0,0,0,0,0,0
735,2.9566092,-0.90496945,0.48744556,0.12802401,0.558769,-3.8149812,3.730316,1.6081554,2.8679543,0,1,0,0,0,0,0,0,0,0,0,0,0,0,0,0,0,0,0,0,0
736,-3.0870004,-0.75037944,0.649884,-0.7295138,0.21362333,-6.0509715,0.8500912,-0.94885206,2.5279777,0,1,0,0,0,0,0,0,0,0,0,0,0,0,0,0,0,0,0,0,0
737,-3.0907195,-0.73017377,0.6597073,-1.0277879,0.94759053,-7.345268,-3.2068834,-0.93807817,1.4697405,0,1,0,0,0,0,0,0,0,0,0,0,0,0,0,0,0,0,0,0,0
738,-2.89386,-0.5285681,0.83319974,0.74907315,3.7822592,-7.530624,-9.826851,0.8228572,4.195539,0,1,0,0,0,0,0,0,0,0,0,0,0,0,0,0,0,0,0,0,0
739,-2.697594,-0.34980923,1.0603186,1.1059368,2.4219165,-6.915966,-12.8710785,0.023193829,5.6631846,0,1,0,0,0,0,0,0,0,0,0,0,0,0,0,0,0,0,0,0,0
740,-2.5804923,-0.16289027,1.133771,0.64148146,0.26582128,-5.247762,-17.55294,3.0829835,5.8535237,0,1,0,0,0,0,0,0,0,0,0,0,0,0,0,0,0,0,0,0,0
741,-2.4921732,-0.060704824,1.1592817,1.6939627,-0.060149625,-3.0565128,-16.904112,3.06383,1.9545664,0,1,0,0,0,0,0,0,0,0,0,0,0,0,0,0,0,0,0,0,0
742,-2.4661515,-0.01387652,1.1399521,0.24733363,-1.1328709,-1.1720601,-15.2353525,1.1341034,0.19602527,0,1,0,0,0,0,0,0,0,0,0,0,0,0,0,0,0,0,0,0,0
743,-2.4695444,3.3230864E-4,1.1128063,-0.032830916,-0.8644243,-0.3219791,-12.8471365,0.29373863,2.74585,0,1,0,0,0,0,0,0,0,0,0,0,0,0,0,0,0,0,0,0,0
744,-2.4790485,-0.0065159504,1.100781,0.1908746,-0.46388483,0.1989352,-11.07423,-0.040252518,2.1520882,0,1,0,0,0,0,0,0,0,0,0,0,0,0,0,0,0,0,0,0,0
745,-2.4976099,-0.019283956,1.099828,0.058781825,-0.23059194,0.37789962,-10.685172,0.5175965,1.4625579,0,1,0,0,0,0,0,0,0,0,0,0,0,0,0,0,0,0,0,0,0
746,-2.5054886,-0.019484881,1.1046196,-0.3449534,-0.25189722,0.58988726,-10.023176,0.30211833,2.3615806,0,1,0,0,0,0,0,0,0,0,0,0,0,0,0,0,0,0,0,0,0
747,-2.5293505,-0.031273346,1.0963811,-0.5292441,-0.26787618,0.6356936,-9.409063,0.17402853,3.5802293,0,1,0,0,0,0,0,0,0,0,0,0,0,0,0,0,0,0,0,0,0
748,-2.553586,-0.042549837,1.0900921,-0.36519343,-0.11128232,0.6463463,-10.048315,0.29373863,4.069844,0,1,0,0,0,0,0,0,0,0,0,0,0,0,0,0,0,0,0,0,0
749,-2.5646093,-0.07126096,1.1020832,0.18341777,0.38619617,1.1001489,-12.814815,2.1408653,4.2769423,0,1,0,0,0,0,0,0,0,0,0,0,0,0,0,0,0,0,0,0,0
750,-2.5636666,-0.07297898,1.1050149,0.18341777,0.38619617,1.1001489,-12.814815,2.1408653,4.2769423,0,1,0,0,0,0,0,0,0,0,0,0,0,0,0,0,0,0,0,0,0
751,-2.5627427,-0.07466264,1.107888,0.18341777,0.38619617,1.1001489,-12.814815,2.1408653,4.2769423,0,1,0,0,0,0,0,0,0,0,0,0,0,0,0,0,0,0,0,0,0
752,2.9874713,-0.7301642,-0.3403719,-0.1294757,0.047687892,-0.04843331,2.425476,6.529437,6.5574193,0,0,0,0,0,0,0,0,0,0,0,0,0,0,0,0,0,0,0,0,0
753,2.9911988,-0.72118014,-0.32903874,-0.31376645,0.2362397,-0.034584876,2.3967454,6.5102835,7.1068883,0,0,0,0,0,0,0,0,0,0,0,0,0,0,0,0,0,0,0,0,0
754,2.994346,-0.71291256,-0.31926832,-0.21895792,0.19149859,-0.029258553,2.5224411,6.3319154,7.4743986,0,0,0,0,0,0,0,0,0,0,0,0,0,0,0,0,0,0,0,0,0
755,2.9955785,-0.71045357,-0.31576738,-0.07621248,0.041296307,-0.049498577,2.3967454,6.348675,7.4157405,0,0,0,0,0,0,0,0,0,0,0,0,0,0,0,0,0,0,0,0,0
756,2.9937928,-0.7102977,-0.3158928,-0.010176205,-0.025823874,-0.061208762,2.3584383,6.3103676,7.068581,0,0,0,0,0,0,0,0,0,0,0,0,0,0,0,0,0,0,0,0,0
757,2.9951909,-0.71022964,-0.31441784,-0.10498474,0.11372577,-0.065469824,2.2914007,6.2720604,7.076961,0,0,0,0,0,0,0,0,0,0,0,0,0,0,0,0,0,0,0,0,0
758,2.9976811,-0.7069027,-0.30692962,-0.14333425,0.18296796,-0.04416453,2.1824646,6.207417,7.13921,0,0,0,0,0,0,0,0,0,0,0,0,0,0,0,0,0,0,0,0,0
759,2.9990537,-0.7021084,-0.29862833,-0.12948582,0.14355317,-0.014337128,2.1812675,6.2301617,7.2517376,0,0,0,0,0,0,0,0,0,0,0,0,0,0,0,0,0,0,0,0,0
760,2.9992118,-0.69948345,-0.29493856,-0.031481493,0.009329852,-0.0154023925,2.1573253,6.2876225,7.1906857,0,0,0,0,0,0,0,0,0,0,0,0,0,0,0,0,0,0,0,0,0
761,2.9988139,-0.69990516,-0.29602736,-0.01656779,-0.038607046,-0.020728715,2.236334,6.293608,6.9919667,0,0,0,0,0,0,0,0,0,0,0,0,0,0,0,0,0,0,0,0,0
762,2.9998784,-0.69735336,-0.29433617,-0.10285421,0.043418314,-0.037772946,2.247108,6.258892,7.2517376,0,0,0,0,0,0,0,0,0,0,0,0,0,0,0,0,0,0,0,0,0
763,3.0005505,-0.69456065,-0.28997067,-0.073026806,0.07111519,-0.024989773,2.0675428,6.2241764,7.4420767,0,0,0,0,0,0,0,0,0,0,0,0,0,0,0,0,0,0,0,0,0
764,3.0001621,-0.69442934,-0.28850552,-0.008045676,0.01359091,-0.024989773,2.0424037,6.1942487,7.2385697,0,0,0,0,0,0,0,0,0,0,0,0,0,0,0,0,0,0,0,0,0
765,3.000638,-0.6921393,-0.28489542,-0.06983101,0.06898466,-0.022859244,2.071134,6.0877066,7.246949,0,0,0,0,0,0,0,0,0,0,0,0,0,0,0,0,0,0,0,0,0
766,2.9995255,-0.69171023,-0.2848491,-0.09220157,0.14994475,-0.0036844832,2.1357775,6.076933,7.3558855,0,0,0,0,0,0,0,0,0,0,0,0,0,0,0,0,0,0,0,0,0
767,2.9993188,-0.6886939,-0.27892008,-0.053852048,0.09561627,-0.013271864,2.0531776,6.0996776,7.37863,0,0,0,0,0,0,0,0,0,0,0,0,0,0,0,0,0,0,0,0,0
768,2.9992173,-0.6871607,-0.27648717,-0.012306734,0.008264588,0.012294483,2.080711,6.171504,7.3953896,0,0,0,0,0,0,0,0,0,0,0,0,0,0,0,0,0,0,0,0,0
769,2.997869,-0.68711984,-0.27708057,0.020716464,0.037026726,0.031469245,2.2040124,6.154744,7.1571665,0,0,0,0,0,0,0,0,0,0,0,0,0,0,0,0,0,0,0,0,0
770,2.9965625,-0.68690276,-0.2773809,-0.0112414695,-0.0013227921,0.015490277,2.2734442,6.2002344,7.2158246,0,0,0,0,0,0,0,0,0,0,0,0,0,0,0,0,0,0,0,0,0
771,2.996917,-0.6867658,-0.2779502,0.006868026,-0.019432288,-0.026055036,2.1345804,6.0817213,7.2373724,0,0,0,0,0,0,0,0,0,0,0,0,0,0,0,0,0,0,0,0,0
772,2.9955297,-0.68719673,-0.27721858,0.0058027618,0.021047762,0.010163954,1.963395,6.1092544,7.080552,0,0,0,0,0,0,0,0,0,0,0,0,0,0,0,0,0,0,0,0,0
773,2.9937983,-0.6866117,-0.27775806,-0.017618142,-0.0215503,0.017609354,1.9442414,6.118831,7.1559696,0,0,0,0,0,0,0,0,0,0,0,0,0,0,0,0,0,0,0,0,0
774,2.990726,-0.686225,-0.27931362,-0.0059002335,-0.043920852,0.031457793,1.82094,6.2122054,7.290045,0,0,0,0,0,0,0,0,0,0,0,0,0,0,0,0,0,0,0,0,0
775,2.9896126,-0.6863847,-0.27913925,-0.032531843,0.01892975,0.0580894,2.02325,6.300791,7.2936363,0,0,0,0,0,0,0,0,0,0,0,0,0,0,0,0,0,0,0,0,0
776,2.9875631,-0.68450254,-0.2797652,-0.052771866,0.042365566,0.04104517,2.2937949,6.3211412,7.4265146,0,0,0,0,0,0,0,0,0,0,0,0,0,0,0,0,0,0,0,0,0
777,2.986458,-0.68226177,-0.27925187,0.0015566177,-0.0023755396,0.0069567095,2.2171805,6.2253733,7.540239,0,0,0,0,0,0,0,0,0,0,0,0,0,0,0,0,0,0,0,0,0
778,2.985677,-0.68284214,-0.27935916,0.046297725,0.010407633,0.0048261806,2.1130326,6.1092544,7.4540477,0,0,0,0,0,0,0,0,0,0,0,0,0,0,0,0,0,0,0,0,0
779,2.984281,-0.68450594,-0.27950975,0.05268931,0.0413003,0.005891445,2.1262007,6.0733414,7.19308,0,0,0,0,0,0,0,0,0,0,0,0,0,0,0,0,0,0,0,0,0
780,2.9833868,-0.6853501,-0.2779882,0.0036871466,0.056214005,-0.0068917284,2.0388124,5.994333,7.115268,0,0,0,0,0,0,0,0,0,0,0,0,0,0,0,0,0,0,0,0,0
781,2.9826908,-0.684848,-0.27668598,-0.006965498,0.012538162,0.008021974,1.9526211,5.9656024,7.1906857,0,0,0,0,0,0,0,0,0,0,0,0,0,0,0,0,0,0,0,0,0
782,2.9804857,-0.6842154,-0.27873367,0.004752411,-0.024746092,0.051697817,2.1381717,6.008698,7.242161,0,0,0,0,0,0,0,0,0,0,0,0,0,0,0,0,0,0,0,0,0
783,2.9792058,-0.6833858,-0.28105232,-0.008030762,-0.015158713,0.046371493,2.3177369,6.043414,7.161955,0,0,0,0,0,0,0,0,0,0,0,0,0,0,0,0,0,0,0,0,0
784,2.9782672,-0.6818143,-0.2806224,-0.044249754,0.027451864,0.027196733,2.10585,6.1212254,7.1571665,0,0,0,0,0,0,0,0,0,0,0,0,0,0,0,0,0,0,0,0,0
785,2.9781039,-0.681933,-0.28084996,-0.05809819,-0.015158713,0.049567286,2.18845,6.245724,7.280468,0,0,0,0,0,0,0,0,0,0,0,0,0,0,0,0,0,0,0,0,0
786,2.9768715,-0.67955565,-0.2830373,-0.04318449,-0.022615563,0.031457793,2.3177369,6.255301,7.3894043,0,0,0,0,0,0,0,0,0,0,0,0,0,0,0,0,0,0,0,0,0
787,2.9761033,-0.6780951,-0.28338262,-0.03572764,-0.0119629195,-5.0014164E-4,2.0651486,6.1571383,7.408558,0,0,0,0,0,0,0,0,0,0,0,0,0,0,0,0,0,0,0,0,0
788,2.9757137,-0.67714614,-0.2836268,-0.026140258,-0.026876621,0.0016303872,2.0424037,6.1643214,7.444471,0,0,0,0,0,0,0,0,0,0,0,0,0,0,0,0,0,0,0,0,0
789,2.975983,-0.6757767,-0.28276303,-0.042119224,0.071127705,-0.009022257,2.1680992,6.1343937,7.5474215,0,0,0,0,0,0,0,0,0,0,0,0,0,0,0,0,0,0,0,0,0
790,2.9764721,-0.6744364,-0.27863222,-0.021889053,0.106273174,0.0037686392,2.1776762,6.0027127,7.503129,0,0,0,0,0,0,0,0,0,0,0,0,0,0,0,0,0,0,0,0,0
791,2.9762645,-0.6745224,-0.27734986,0.018590994,0.04661837,-4.924185E-4,2.2854152,5.99553,7.376236,0,0,0,0,0,0,0,0,0,0,0,0,0,0,0,0,0,0,0,0,0
792,2.9763753,-0.675403,-0.27624395,0.029243639,0.050879426,-0.013275592,2.23394,5.9117327,7.163152,0,0,0,0,0,0,0,0,0,0,0,0,0,0,0,0,0,0,0,0,0
793,2.9772463,-0.6756323,-0.27304778,-0.0069753514,0.08283736,-0.030319823,2.092682,5.900959,6.922535,0,0,0,0,0,0,0,0,0,0,0,0,0,0,0,0,0,0,0,0,0
794,2.9763877,-0.6757445,-0.27317077,-0.115632325,0.063662596,-0.018601913,2.0364182,5.9907417,7.103297,0,0,0,0,0,0,0,0,0,0,0,0,0,0,0,0,0,0,0,0,0
795,2.9776504,-0.6715037,-0.27025267,-0.07302175,0.031704668,0.0037686392,2.117821,5.99553,7.3929954,0,0,0,0,0,0,0,0,0,0,0,0,0,0,0,0,0,0,0,0,0
796,2.9766076,-0.6700085,-0.26887593,0.014329937,-0.008775382,0.010160225,1.9023429,6.0003185,7.054216,0,0,0,0,0,0,0,0,0,0,0,0,0,0,0,0,0,0,0,0,0
797,2.9749718,-0.6703145,-0.27016193,-0.07302175,-0.050320696,0.018682342,1.9825486,6.094889,7.163152,0,0,0,0,0,0,0,0,0,0,0,0,0,0,0,0,0,0,0,0,0
798,2.975079,-0.66639155,-0.2702276,-0.13267656,0.05407522,-0.009014534,2.1597195,6.173898,7.5234795,0,0,0,0,0,0,0,0,0,0,0,0,0,0,0,0,0,0,0,0,0
799,2.976155,-0.66282415,-0.26429272,-0.11669759,0.11586056,-0.027124029,1.9418472,6.054188,7.5210853,0,0,0,0,0,0,0,0,0,0,0,0,0,0,0,0,0,0,0,0,0
800,2.9770656,-0.65867895,-0.26111835,-0.12095865,0.041292045,-0.014340856,2.095076,6.031443,7.7617025,0,0,0,0,0,0,0,0,0,0,0,0,0,0,0,0,0,0,0,0,0
801,2.9780326,-0.6552412,-0.25826624,-0.07834807,0.06153207,-0.016471384,2.1848588,6.008698,8.020276,0,0,0,0,0,0,0,0,0,0,0,0,0,0,0,0,0,0,0,0,0
802,2.9773998,-0.6564641,-0.25748813,0.04202681,0.027443608,-0.015406121,2.1118355,5.9380693,7.637204,0,0,0,0,0,0,0,0,0,0,0,0,0,0,0,0,0,0,0,0,0
803,2.9771428,-0.6572853,-0.25690448,0.012199408,0.009334113,-0.023928236,2.0028994,5.946449,7.2637086,0,0,0,0,0,0,0,0,0,0,0,0,0,0,0,0,0,0,0,0,0
804,2.9764404,-0.65717316,-0.25692528,-0.058108043,0.014660436,-0.018601913,2.0148704,6.0254574,7.637204,0,0,0,0,0,0,0,0,0,0,0,0,0,0,0,0,0,0,0,0,0
805,2.9765587,-0.6558449,-0.25579232,0.052679457,0.011464642,-0.0058187405,1.9789573,6.067356,7.536648,0,0,0,0,0,0,0,0,0,0,0,0,0,0,0,0,0,0,0,0,0
806,2.9738925,-0.659358,-0.2553268,0.059063587,0.017850103,0.0069702915,1.6928502,6.0841155,7.0159087,0,0,0,0,0,0,0,0,0,0,0,0,0,0,0,0,0,0,0,0,0
807,2.9717202,-0.6602975,-0.25459203,-0.044267062,0.004001666,0.0037744981,1.7060183,6.0386257,7.342717,0,0,0,0,0,0,0,0,0,0,0,0,0,0,0,0,0,0,0,0,0
808,2.9721124,-0.65739584,-0.2547403,-0.03148389,-0.009846772,-0.0058128815,2.1381717,6.0817213,8.0166855,0,0,0,0,0,0,0,0,0,0,0,0,0,0,0,0,0,0,0,0,0
809,2.9727063,-0.65925246,-0.2544599,0.104869954,0.042351186,-0.026052905,2.104653,5.9536314,7.7964187,0,0,0,0,0,0,0,0,0,0,0,0,0,0,0,0,0,0,0,0,0
810,2.9723108,-0.66317904,-0.25177783,0.09634784,0.0988102,-0.011139204,2.047192,5.9093385,7.2876506,0,0,0,0,0,0,0,0,0,0,0,0,0,0,0,0,0,0,0,0,0
811,2.9740064,-0.6625202,-0.24910739,-0.018700717,0.068982795,-0.031379227,2.1118355,5.8853965,7.4863696,0,0,0,0,0,0,0,0,0,0,0,0,0,0,0,0,0,0,0,0,0
812,2.9742527,-0.66446483,-0.24868512,0.06225938,-0.008781508,-0.03670555,1.8113632,5.7513213,7.4157405,0,0,0,0,0,0,0,0,0,0,0,0,0,0,0,0,0,0,0,0,0
813,2.974083,-0.66426224,-0.24885468,0.06652044,-0.07376264,-0.012204468,1.8772038,5.6615386,7.138013,0,0,0,0,0,0,0,0,0,0,0,0,0,0,0,0,0,0,0,0,0
814,2.9729238,-0.665722,-0.25074744,-0.029353362,0.03915539,-0.0058128815,1.7036241,5.745336,7.252935,0,0,0,0,0,0,0,0,0,0,0,0,0,0,0,0,0,0,0,0,0
815,2.972089,-0.6644261,-0.24824822,-0.037875477,0.015719574,0.021883994,1.6844705,5.878214,7.421726,0,0,0,0,0,0,0,0,0,0,0,0,0,0,0,0,0,0,0,0,0
816,2.9711285,-0.66283435,-0.24902648,-0.040006004,-0.05778367,0.0069702915,1.8999487,5.924901,7.5833344,0,0,0,0,0,0,0,0,0,0,0,0,0,0,0,0,0,0,0,0,0
817,2.9715962,-0.66044885,-0.25102612,-0.052789178,-0.041804705,0.013361878,2.1166239,5.9667997,7.9041576,0,0,0,0,0,0,0,0,0,0,0,0,0,0,0,0,0,0,0,0,0
818,2.9713652,-0.6595221,-0.25113875,-0.0027217506,0.03915539,0.012296613,2.1405659,6.035034,7.721001,0,0,0,0,0,0,0,0,0,0,0,0,0,0,0,0,0,0,0,0,0
819,2.972159,-0.65847546,-0.2501568,-0.03361442,0.032763805,-0.0058128815,2.2399254,6.0817213,7.732972,0,0,0,0,0,0,0,0,0,0,0,0,0,0,0,0,0,0,0,0,0
820,2.9738035,-0.65870744,-0.24941455,0.013257216,0.035959598,-0.023922376,2.2542906,6.067356,7.5569983,0,0,0,0,0,0,0,0,0,0,0,0,0,0,0,0,0,0,0,0,0
821,2.97539,-0.66077363,-0.24691668,0.03136671,0.06791753,-0.045227665,2.0603602,6.15235,7.104494,0,0,0,0,0,0,0,0,0,0,0,0,0,0,0,0,0,0,0,0,0
822,2.9782953,-0.6611904,-0.24509858,-0.026157567,0.013589046,-0.07079401,1.9837457,6.1080575,7.0518217,0,0,0,0,0,0,0,0,0,0,0,0,0,0,0,0,0,0,0,0,0
823,2.9781644,-0.66162735,-0.24569787,-0.029348567,-0.021560686,-0.07079801,2.02325,6.0613704,7.1691375,0,0,0,0,0,0,0,0,0,0,0,0,0,0,0,0,0,0,0,0,0
824,2.9805396,-0.66242754,-0.2451813,-0.002716957,-0.037539653,-0.06866748,1.9107226,6.1260138,6.923732,0,0,0,0,0,0,0,0,0,0,0,0,0,0,0,0,0,0,0,0,0
825,2.982242,-0.6627454,-0.2441045,-0.09646022,-0.06630179,-0.094233826,1.6461633,6.064962,7.127239,0,0,0,0,0,0,0,0,0,0,0,0,0,0,0,0,0,0,0,0,0
826,2.984773,-0.65988594,-0.24218321,-0.098590754,-0.07375864,-0.07292853,1.3851954,5.9500403,7.5115085,0,0,0,0,0,0,0,0,0,0,0,0,0,0,0,0,0,0,0,0,0
827,2.9847212,-0.6576311,-0.24185476,-0.0463928,-0.084411286,0.0016399745,1.3169606,5.902156,7.706636,0,0,0,0,0,0,0,0,0,0,0,0,0,0,0,0,0,0,0,0,0
828,2.9814506,-0.6565622,-0.2442036,-0.002716957,-0.06097547,0.045315817,1.4677953,5.886594,7.71741,0,0,0,0,0,0,0,0,0,0,0,0,0,0,0,0,0,0,0,0,0
829,2.9775157,-0.6550835,-0.24444616,-0.028283304,0.029572006,0.07514322,1.546804,5.9057474,7.682694,0,0,0,0,0,0,0,0,0,0,0,0,0,0,0,0,0,0,0,0,0
830,2.9734378,-0.6526645,-0.24298847,-0.043197006,0.092422605,0.09431798,1.7515082,5.9069443,7.693468,0,0,0,0,0,0,0,0,0,0,0,0,0,0,0,0,0,0,0,0,0
