nr,fusedX,fusedY,fusedZ,gyroX,gyroY,gyroZ,accX,accY,accZ,q,w,e,r,t,z,u,i,o,p,a,s,d,f,g,h,j,k,l,y
0,-2.6077137,-0.91776365,-0.29851028,-0.20618805,0.16618018,-0.039974846,1.5303438,7.7051396,6.133945,0,0,0,0,0,0,0,0,0,0,0,0,0,0,0,0,0,0,0,0,0
1,-2.5997512,-0.9085546,-0.2831176,-0.062377356,0.026630545,-0.017604293,1.3735236,7.5566993,6.030994,0,0,0,0,0,0,0,0,0,0,0,0,0,0,0,0,0,0,0,0,0
2,-2.6011992,-0.9080224,-0.28271064,-0.057051037,0.0063905213,0.0047662593,1.6129438,7.5411367,5.9962783,0,0,0,0,0,0,0,0,0,0,0,0,0,0,0,0,0,0,0,0,0
3,-2.602846,-0.9072251,-0.28245196,-0.06557315,0.05219689,-0.006951649,1.7087119,7.5710645,6.179435,0,0,0,0,0,0,0,0,0,0,0,0,0,0,0,0,0,0,0,0,0
4,-2.6042857,-0.90675235,-0.28138897,-0.009114136,0.043674774,-0.009082179,1.4082395,7.5495167,6.033388,0,0,0,0,0,0,0,0,0,0,0,0,0,0,0,0,0,0,0,0,0
5,-2.604938,-0.9065895,-0.280691,0.005799566,-0.026632676,0.022875754,1.4752772,7.5974007,5.8634,0,0,0,0,0,0,0,0,0,0,0,0,0,0,0,0,0,0,0,0,0
6,-2.6103208,-0.904061,-0.2878303,-0.0581163,0.040478982,0.015418904,1.8475755,7.65965,5.9639564,0,0,0,0,0,0,0,0,0,0,0,0,0,0,0,0,0,0,0,0,0
7,-2.6103036,-0.9036698,-0.2871713,-0.076225795,0.08522009,-0.032517996,1.5710453,7.6069775,6.029797,0,0,0,0,0,0,0,0,0,0,0,0,0,0,0,0,0,0,0,0,0
8,-2.6102595,-0.9033611,-0.2864249,-0.06983421,0.03941372,-0.02399588,1.5099931,7.5124063,5.9172697,0,0,0,0,0,0,0,0,0,0,0,0,0,0,0,0,0,0,0,0,0
9,-2.6107512,-0.9028286,-0.2854768,-0.1273529,0.04261271,-0.02399801,1.4824598,7.5243773,6.0836663,0,0,0,0,0,0,0,0,0,0,0,0,0,0,0,0,0,0,0,0,0
10,-2.6028035,-0.88788074,-0.27002114,-0.11456972,0.07244011,-0.010149573,1.5291467,7.495647,6.131551,0,0,0,0,0,0,0,0,0,0,0,0,0,0,0,0,0,0,0,0,0
11,-2.6039782,-0.8873914,-0.269218,-0.12096131,0.096941195,-0.018671688,1.4597149,7.4932528,6.2380924,0,0,0,0,0,0,0,0,0,0,0,0,0,0,0,0,0,0,0,0,0
12,-2.605103,-0.88689756,-0.26828638,-0.09965602,0.10120225,-0.00695378,1.4046482,7.429806,6.2045736,0,0,0,0,0,0,0,0,0,0,0,0,0,0,0,0,0,0,0,0,0
13,-2.606216,-0.88633144,-0.26748192,-0.0762202,0.044743236,-0.014410631,1.4573207,7.465719,6.278794,0,0,0,0,0,0,0,0,0,0,0,0,0,0,0,0,0,0,0,0,0
14,-2.6073117,-0.88573,-0.26641488,-0.021891717,0.02130742,0.0026336,1.3591584,7.373543,6.2500634,0,0,0,0,0,0,0,0,0,0,0,0,0,0,0,0,0,0,0,0,0
15,-2.6084695,-0.88350147,-0.26476005,-0.02295698,-0.0010631339,0.010090451,1.3759178,7.438186,6.1088057,0,0,0,0,0,0,0,0,0,0,0,0,0,0,0,0,0,0,0,0,0
16,-2.6082962,-0.8832349,-0.26424122,-0.09326443,0.07670117,0.006894658,1.4884453,7.460931,6.113594,0,0,0,0,0,0,0,0,0,0,0,0,0,0,0,0,0,0,0,0,0
17,-2.6084762,-0.88229716,-0.26374438,-0.12628762,0.12144227,-0.010149573,1.5854105,7.4046674,6.495469,0,0,0,0,0,0,0,0,0,0,0,0,0,0,0,0,0,0,0,0,0
18,-2.6082513,-0.8816408,-0.2632862,0.01113148,0.019176891,-0.046368565,1.5626655,7.450157,6.362591,0,0,0,0,0,0,0,0,0,0,0,0,0,0,0,0,0,0,0,0,0
19,-2.5965054,-0.88833666,-0.2577154,0.017523067,-0.0319558,-0.061282266,1.3100772,7.4286094,5.837064,0,0,0,0,0,0,0,0,0,0,0,0,0,0,0,0,0,0,0,0,0
20,-2.5966055,-0.88778603,-0.2569008,-0.09752549,-0.009585249,-0.042107508,1.3699323,7.40347,6.2141504,0,0,0,0,0,0,0,0,0,0,0,0,0,0,0,0,0,0,0,0,0
21,-2.5978436,-0.8866921,-0.2557436,-0.084742315,0.0053284527,-0.050629623,1.3208512,7.349601,6.5481415,0,0,0,0,0,0,0,0,0,0,0,0,0,0,0,0,0,0,0,0,0
22,-2.599062,-0.8857414,-0.2544374,-0.03254436,-0.0170421,-0.059151735,1.2454338,7.328053,6.4607534,0,0,0,0,0,0,0,0,0,0,0,0,0,0,0,0,0,0,0,0,0
23,-2.5995579,-0.8850135,-0.25324342,-0.002716957,-0.009585249,-0.029324332,1.2502222,7.3448124,6.338649,0,0,0,0,0,0,0,0,0,0,0,0,0,0,0,0,0,0,0,0,0
24,-2.5949464,-0.88534755,-0.24941376,-0.0069780145,-0.008519985,-0.010149573,1.2526164,7.3364325,6.2883706,0,0,0,0,0,0,0,0,0,0,0,0,0,0,0,0,0,0,0,0,0
25,-2.5951893,-0.88450265,-0.24864228,-0.006976683,-0.024498152,5.025385E-4,1.366341,7.32925,6.384139,0,0,0,0,0,0,0,0,0,0,0,0,0,0,0,0,0,0,0,0,0
26,-2.594965,-0.88376486,-0.24822666,0.030307572,-0.08521823,-0.036781717,1.484854,7.4465656,6.4032927,0,0,0,0,0,0,0,0,0,0,0,0,0,0,0,0,0,0,0,0,0
27,-2.5930839,-0.88359654,-0.2476637,0.038829688,-0.07243505,-0.048499625,1.3531729,7.427412,6.0489507,0,0,0,0,0,0,0,0,0,0,0,0,0,0,0,0,0,0,0,0,0
28,-2.5844836,-0.8802976,-0.24235424,-0.04958726,0.019177688,-0.025063807,1.3316251,7.3220673,6.196194,0,0,0,0,0,0,0,0,0,0,0,0,0,0,0,0,0,0,0,0,0
29,-2.5847132,-0.87929934,-0.24153139,-0.064500965,0.0127861025,-0.027194336,1.3388077,7.330447,6.563704,0,0,0,0,0,0,0,0,0,0,0,0,0,0,0,0,0,0,0,0,0
30,-2.5854607,-0.87825733,-0.2402905,0.031372838,-0.02130236,-0.017606957,1.1939584,7.271789,6.5804634,0,0,0,0,0,0,0,0,0,0,0,0,0,0,0,0,0,0,0,0,0
31,-2.5852551,-0.87766296,-0.2393406,0.069722354,-0.018106565,0.029264677,1.2334628,7.306505,6.3182983,0,0,0,0,0,0,0,0,0,0,0,0,0,0,0,0,0,0,0,0,0
32,-2.5845187,-0.8771151,-0.2389122,0.04202548,-0.013845508,0.021807827,1.4094366,7.425018,6.364985,0,0,0,0,0,0,0,0,0,0,0,0,0,0,0,0,0,0,0,0,0
33,-2.588567,-0.88239604,-0.24482115,0.07078762,-0.048999235,5.025385E-4,1.3986627,7.4286094,6.221333,0,0,0,0,0,0,0,0,0,0,0,0,0,0,0,0,0,0,0,0,0
34,-2.5870078,-0.8821259,-0.24438496,0.06333077,-0.046868704,0.0058288607,1.3842975,7.402273,6.1040173,0,0,0,0,0,0,0,0,0,0,0,0,0,0,0,0,0,0,0,0,0
35,-2.5859382,-0.88139516,-0.2443788,0.00580649,-0.005323393,-0.019737486,1.5949873,7.4465656,6.4044895,0,0,0,0,0,0,0,0,0,0,0,0,0,0,0,0,0,0,0,0,0
36,-2.5853076,-0.8808631,-0.24355534,0.045221273,-0.029824475,-0.07726177,1.3040917,7.427412,6.329072,0,0,0,0,0,0,0,0,0,0,0,0,0,0,0,0,0,0,0,0,0
37,-2.5736039,-0.8909063,-0.24360123,0.05587392,-0.08202243,-0.06447859,1.2322657,7.4322004,5.9998693,0,0,0,0,0,0,0,0,0,0,0,0,0,0,0,0,0,0,0,0,0
38,-2.5723453,-0.8905834,-0.24339548,-0.014433534,-0.037281327,-0.036781717,1.4417584,7.463325,6.066907,0,0,0,0,0,0,0,0,0,0,0,0,0,0,0,0,0,0,0,0,0
39,-2.5723062,-0.88995355,-0.24248421,-0.03999988,0.0127861025,-0.03039013,1.2538135,7.3962874,6.254852,0,0,0,0,0,0,0,0,0,0,0,0,0,0,0,0,0,0,0,0,0
40,-2.572673,-0.8890504,-0.24165337,-0.018694593,-0.02875921,-0.023998544,1.3064859,7.373543,6.4140663,0,0,0,0,0,0,0,0,0,0,0,0,0,0,0,0,0,0,0,0,0
41,-2.5725896,-0.8882349,-0.241203,0.0068717543,-0.030889738,-0.033585925,1.4178163,7.3986816,6.3661823,0,0,0,0,0,0,0,0,0,0,0,0,0,0,0,0,0,0,0,0,0
42,-2.5649903,-0.8910038,-0.23996991,0.042029742,-0.053257894,-0.047435958,1.3914801,7.483676,6.149507,0,0,0,0,0,0,0,0,0,0,0,0,0,0,0,0,0,0,0,0,0
43,-2.5633802,-0.89097196,-0.23979242,0.015398131,-0.07136739,-0.061284397,1.3962685,7.5171947,5.934029,0,0,0,0,0,0,0,0,0,0,0,0,0,0,0,0,0,0,0,0,0
44,-2.562847,-0.89054805,-0.23927626,-0.07088829,-0.010647318,-0.058088604,1.3280338,7.409456,6.1112,0,0,0,0,0,0,0,0,0,0,0,0,0,0,0,0,0,0,0,0,0
45,-2.563354,-0.88943076,-0.23840538,-0.10178096,-0.036213662,-0.059153866,1.2933178,7.340024,6.5230026,0,0,0,0,0,0,0,0,0,0,0,0,0,0,0,0,0,0,0,0,0
46,-2.5434098,-0.8831402,-0.2357391,-0.044256676,-0.1427401,-0.1060255,1.4597149,7.4190326,6.384139,0,0,0,0,0,0,0,0,0,0,0,0,0,0,0,0,0,0,0,0,0
47,-2.543242,-0.8828659,-0.2348486,-0.048517734,-0.08521583,-0.11454762,1.1843816,7.378331,6.1183825,0,0,0,0,0,0,0,0,0,0,0,0,0,0,0,0,0,0,0,0,0
48,-2.5440755,-0.88203883,-0.23390843,-0.08580199,-0.11397797,-0.094307594,1.2394483,7.427412,6.5206084,0,0,0,0,0,0,0,0,0,0,0,0,0,0,0,0,0,0,0,0,0
49,-2.5444422,-0.8815296,-0.23294663,0.021789718,-0.38135934,-0.16994137,1.1843816,7.3950906,6.3003416,0,0,0,0,0,0,0,0,0,0,0,0,0,0,0,0,0,0,0,0,0
50,-2.543905,-0.8812479,-0.2325901,-5.8083545E-4,-0.40266463,-0.11241709,1.3400048,7.402273,6.1327477,0,0,0,0,0,0,0,0,0,0,0,0,0,0,0,0,0,0,0,0,0
51,-2.5170057,-0.8808005,-0.27028447,-0.23067795,-0.5379532,-0.2945773,1.6835726,7.5004354,6.235698,0,0,0,0,0,0,0,0,0,0,0,0,0,0,0,0,0,0,0,0,0
52,-2.5157518,-0.8805506,-0.2697477,-0.39153287,-0.31105188,-0.33612263,1.484854,7.2765775,5.9783216,0,0,0,0,0,0,0,0,0,0,0,0,0,0,0,0,0,0,0,0,0
53,-2.5191417,-0.8775832,-0.2681156,-0.4543835,-0.5699111,-0.34997106,1.4812627,7.1185603,7.7799582,0,0,0,0,0,0,0,0,0,0,0,0,0,0,0,0,0,0,0,0,0
54,-2.5208104,-0.8758884,-0.2666233,-0.4479919,-1.1249139,-0.7206831,1.3914801,7.3448124,7.101202,0,0,0,0,0,0,0,0,0,0,0,0,0,0,0,0,0,0,0,0,0
55,-2.346388,-0.84037626,-0.26683205,-0.53427833,-0.8436841,-0.76861995,1.1807903,5.916671,6.896498,0,0,0,0,0,0,0,0,0,0,0,0,0,0,0,0,0,0,0,0,0
56,-2.3588,-0.8351074,-0.26086125,-0.6503921,-0.82770514,-0.47673753,-0.27967268,5.740697,8.816648,0,0,0,0,0,0,0,0,0,0,0,0,0,0,0,0,0,0,0,0,0
57,-2.367771,-0.83158773,-0.25710452,-0.44373083,-1.6735251,-0.6152219,0.6133646,6.5128274,8.384495,0,0,0,0,0,0,0,0,0,0,0,0,0,0,0,0,0,0,0,0,0
58,-2.368407,-0.8307116,-0.2579923,-0.065561965,-1.0652591,-0.309491,2.2414217,7.5842323,7.207744,0,0,0,0,0,0,0,0,0,0,0,0,0,0,0,0,0,0,0,0,0
59,-2.3239052,-0.85737216,-0.31360847,0.14749385,-0.67430544,-0.29031733,2.8052561,6.6026096,7.393295,0,0,0,0,0,0,0,0,0,0,0,0,0,0,0,0,0,0,0,0,0
60,-2.3259182,-0.8560182,-0.31154224,0.3019572,-1.304942,-0.73346734,1.5303438,7.3938932,7.169437,0,0,0,0,0,0,0,0,0,0,0,0,0,0,0,0,0,0,0,0,0
61,-2.3244724,-0.85570556,-0.31169185,0.6620166,-1.2548746,-0.671682,2.0834043,7.4166384,6.307524,0,0,0,0,0,0,0,0,0,0,0,0,0,0,0,0,0,0,0,0,0
62,-2.3186255,-0.85720116,-0.31423354,0.55335957,-1.0886934,-0.5044355,2.352752,7.433398,5.0134583,0,0,0,0,0,0,0,0,0,0,0,0,0,0,0,0,0,0,0,0,0
63,-2.3143363,-0.85818183,-0.3135253,0.15068965,-0.8490088,-0.377669,1.5315409,7.102998,5.3498435,0,0,0,0,0,0,0,0,0,0,0,0,0,0,0,0,0,0,0,0,0
64,-2.2789285,-0.85860527,-0.35177994,-0.45864162,-0.07030053,0.036718868,1.1137527,7.3244615,5.884948,0,0,0,0,0,0,0,0,0,0,0,0,0,0,0,0,0,0,0,0,0
65,-2.284207,-0.85532546,-0.350854,-0.84746313,-0.29826713,0.058024153,2.2737434,6.2985463,7.2101383,0,0,0,0,0,0,0,0,0,0,0,0,0,0,0,0,0,0,0,0,0
66,-2.2904406,-0.8519581,-0.34933954,-0.34891936,-0.7147855,-0.36169004,2.3324013,7.041946,8.26239,0,0,0,0,0,0,0,0,0,0,0,0,0,0,0,0,0,0,0,0,0
67,-2.2936175,-0.8500069,-0.35003293,0.8005009,0.112924956,-0.22214039,2.8495488,7.1484876,7.052121,0,0,0,0,0,0,0,0,0,0,0,0,0,0,0,0,0,0,0,0,0
68,-2.2952316,-1.0342087,-0.33542627,1.3299373,0.08522808,-0.4884565,1.9277812,6.057929,6.3111157,0,0,0,0,0,0,0,0,0,0,0,0,0,0,0,0,0,0,0,0,0
69,-2.2862196,-1.0343751,-0.33778194,1.0103581,-0.38987985,-0.20083511,2.2964883,8.987235,4.71538,0,0,0,0,0,0,0,0,0,0,0,0,0,0,0,0,0,0,0,0,0
70,-2.2746022,-1.0360175,-0.34131426,0.48411742,0.32065153,-0.022935942,2.2055087,9.178771,3.9025488,0,0,0,0,0,0,0,0,0,0,0,0,0,0,0,0,0,0,0,0,0
71,-2.265724,-1.0374664,-0.34608382,-0.10390855,0.6210561,0.19118221,2.3455694,8.590994,3.5817258,0,0,0,0,0,0,0,0,0,0,0,0,0,0,0,0,0,0,0,0,0
72,-2.2674863,-1.0341944,-0.34690997,-0.56836385,0.3579358,0.014348313,2.3766942,7.515998,5.825093,0,0,0,0,0,0,0,0,0,0,0,0,0,0,0,0,0,0,0,0,0
73,-2.1878858,-0.95404273,-0.2699502,-0.47355533,-0.05645209,-0.07087284,1.75899,7.3472066,6.075287,0,0,0,0,0,0,0,0,0,0,0,0,0,0,0,0,0,0,0,0,0
74,-2.1947262,-0.9514682,-0.26831496,0.17838652,0.8245216,0.04097992,1.2645874,7.3220673,6.6403184,0,0,0,0,0,0,0,0,0,0,0,0,0,0,0,0,0,0,0,0,0
75,-2.2080615,-0.9491284,-0.26125363,1.0998288,-0.5869602,-0.09856545,-0.50951606,6.640917,5.997475,0,0,0,0,0,0,0,0,0,0,0,0,0,0,0,0,0,0,0,0,0
76,-2.218668,-0.94484967,-0.25833654,1.4204733,-1.7821869,-0.14969815,0.7330746,5.7574563,6.3242836,0,0,0,0,0,0,0,0,0,0,0,0,0,0,0,0,0,0,0,0,0
77,-1.8474474,-1.1492196,-0.22212948,1.1339172,-2.0666125,-1.6815484,1.4178163,8.345589,3.064578,0,0,0,0,0,0,0,0,0,0,0,0,0,0,0,0,0,0,0,0,0
78,-1.8905696,-1.1456736,-0.20375314,0.19115824,0.99176174,-1.9478645,-4.275595,9.762956,5.1104236,0,0,0,0,0,0,0,0,0,0,0,0,0,0,0,0,0,0,0,0,0
79,-1.9254006,-1.1407348,-0.18632984,0.4020806,0.76912147,0.21462229,-3.250877,6.601413,4.1252093,0,0,0,0,0,0,0,0,0,0,0,0,0,0,0,0,0,0,0,0,0
80,-1.9313073,-1.1386478,-0.19522665,0.072913885,0.23222817,0.5086353,2.3431752,6.7091517,3.205836,0,0,0,0,0,0,0,0,0,0,0,0,0,0,0,0,0,0,0,0,0
81,-1.9891628,-1.1388133,-0.17723629,-1.5793113,0.39414838,-0.55982494,-2.4176948,8.27496,2.8455088,0,0,0,0,0,0,0,0,0,0,0,0,0,0,0,0,0,0,0,0,0
82,-1.9044799,-0.85977757,0.010398533,-2.7404494,0.84688574,0.692926,-3.179051,6.83365,4.1539397,0,0,0,0,0,0,0,0,0,0,0,0,0,0,0,0,0,0,0,0,0
83,-1.9237586,-0.8546298,0.013509965,-2.8363233,1.548895,1.6101186,-1.2170026,5.065532,7.265205,0,0,0,0,0,0,0,0,0,0,0,0,0,0,0,0,0,0,0,0,0
84,-1.9373211,-0.85263973,0.015361115,-2.859759,1.2879052,1.2159709,-0.65675944,5.8388596,6.1686606,0,0,0,0,0,0,0,0,0,0,0,0,0,0,0,0,0,0,0,0,0
85,-1.9577802,-0.84538156,0.019208722,-2.4304576,1.4807181,0.65670705,-1.8071734,4.670489,8.573636,0,0,0,0,0,0,0,0,0,0,0,0,0,0,0,0,0,0,0,0,0
86,-1.9634367,-0.61330837,0.27087048,-1.5494838,2.0197418,-0.40749213,-0.4293103,7.069479,9.54209,0,0,0,0,0,0,0,0,0,0,0,0,0,0,0,0,0,0,0,0,0
87,-1.9678311,-0.61486906,0.2675469,-0.86345357,2.1688788,0.52781004,-0.95962596,7.599795,9.132683,0,0,0,0,0,0,0,0,0,0,0,0,0,0,0,0,0,0,0,0,0
88,-1.9721751,-0.6145517,0.26262113,-1.3982162,1.4114759,1.9680475,-0.14200608,4.5603557,6.6786256,0,0,0,0,0,0,0,0,0,0,0,0,0,0,0,0,0,0,0,0,0
89,-1.9785883,-0.6093725,0.24842736,-2.302626,1.0663302,1.4833522,4.652383,3.9965212,9.703699,0,0,0,0,0,0,0,0,0,0,0,0,0,0,0,0,0,0,0,0,0
90,-1.9848305,-0.6059637,0.24087259,-1.5335048,1.1504861,-0.2977699,1.3328222,4.8524485,10.2495775,0,0,0,0,0,0,0,0,0,0,0,0,0,0,0,0,0,0,0,0,0
91,-1.9751775,-0.4586307,0.42393792,-0.06876628,1.8013626,-0.48206064,0.74145436,3.0160956,9.02614,0,0,0,0,0,0,0,0,0,0,0,0,0,0,0,0,0,0,0,0,0
92,-1.9800457,-0.45756018,0.4088548,-0.24560577,1.0322388,-0.9699496,2.9884126,3.9522285,8.718486,0,0,0,0,0,0,0,0,0,0,0,0,0,0,0,0,0,0,0,0,0
93,-1.980501,-0.4606413,0.39647397,-1.3896998,-0.36964914,-0.963558,1.8032827,6.06152,8.452729,0,0,0,0,0,0,0,0,0,0,0,0,0,0,0,0,0,0,0,0,0
94,-1.9841204,-0.46092656,0.38594627,-1.6315148,-0.79682016,-0.886859,1.0766426,4.2730513,8.240842,0,0,0,0,0,0,0,0,0,0,0,0,0,0,0,0,0,0,0,0,0
95,-1.8826196,-0.23984374,0.32869887,-1.2032785,-0.63916105,-1.3640975,1.2849381,2.7275944,9.3026705,0,0,0,0,0,0,0,0,0,0,0,0,0,0,0,0,0,0,0,0,0
96,-1.8893933,-0.24256568,0.32196882,-1.0988826,-0.7776454,-0.9092296,0.06748656,3.413533,8.647857,0,0,0,0,0,0,0,0,0,0,0,0,0,0,0,0,0,0,0,0,0
97,-1.8947984,-0.24388173,0.31182337,-1.3928956,-0.9065424,-0.44264373,1.6608278,2.8712463,8.859743,0,0,0,0,0,0,0,0,0,0,0,0,0,0,0,0,0,0,0,0,0
98,-1.9063027,-0.24088685,0.30673277,-1.7071486,-0.6242474,-1.6847421,-0.64000005,1.0552444,11.158177,0,0,0,0,0,0,0,0,0,0,0,0,0,0,0,0,0,0,0,0,0
99,-1.9106451,-0.24158217,0.3011465,-1.4088745,0.028759742,-1.6815462,-0.2988263,3.0831332,10.896012,0,0,0,0,0,0,0,0,0,0,0,0,0,0,0,0,0,0,0,0,0
100,-1.7863686,-0.025438163,0.32824394,-1.1148615,0.3387517,-0.85064,2.647239,2.9119477,11.182119,0,0,0,0,0,0,0,0,0,0,0,0,0,0,0,0,0,0,0,0,0
101,-1.7876563,-0.030171648,0.3191557,-1.1766468,0.30785903,-0.9944507,1.4118308,3.0101101,11.130644,0,0,0,0,0,0,0,0,0,0,0,0,0,0,0,0,0,0,0,0,0
102,-1.7878923,-0.035057645,0.3132368,-0.71325684,0.21411575,-0.62480396,-0.25573066,3.1022868,11.014524,0,0,0,0,0,0,0,0,0,0,0,0,0,0,0,0,0,0,0,0,0
103,-1.7931652,-0.035577476,0.3044138,0.32644123,0.158722,0.37867513,1.5901989,0.76195467,12.363658,0,0,0,0,0,0,0,0,0,0,0,0,0,0,0,0,0,0,0,0,0
104,-1.8183701,-0.15059961,0.29826534,0.80154914,0.053260826,0.3648267,1.685967,0.86011696,11.580753,0,0,0,0,0,0,0,0,0,0,0,0,0,0,0,0,0,0,0,0,0
105,-1.8203598,-0.15176897,0.28817517,0.97518724,0.16937464,0.43832994,2.4281695,2.5157075,11.605893,0,0,0,0,0,0,0,0,0,0,0,0,0,0,0,0,0,0,0,0,0
106,-1.8215201,-0.15376866,0.27777705,1.1882402,0.36644855,0.75897455,2.7358243,3.0639796,11.593922,0,0,0,0,0,0,0,0,0,0,0,0,0,0,0,0,0,0,0,0,0
107,-1.8254024,-0.15514204,0.2704962,1.2915708,0.39414543,0.6897324,1.0622773,2.7886465,12.283452,0,0,0,0,0,0,0,0,0,0,0,0,0,0,0,0,0,0,0,0,0
108,-1.8327246,-0.15428117,0.26307222,1.4588174,-0.36751863,1.340609,1.1209353,1.2551602,11.0935335,0,0,0,0,0,0,0,0,0,0,0,0,0,0,0,0,0,0,0,0,0
109,-1.9985818,-0.3874272,0.15185228,1.5248538,-0.2663241,1.7869587,2.2043116,0.6853402,8.772355,0,0,0,0,0,0,0,0,0,0,0,0,0,0,0,0,0,0,0,0,0
110,-2.005262,-0.381394,0.14503777,1.2287103,0.52303684,1.055122,1.8834885,0.86251116,9.853337,0,0,0,0,0,0,0,0,0,0,0,0,0,0,0,0,0,0,0,0,0
111,-2.0109768,-0.37783396,0.1367411,0.5512022,-0.039422773,0.095318794,2.2749405,1.7603368,8.226477,0,0,0,0,0,0,0,0,0,0,0,0,0,0,0,0,0,0,0,0,0
112,-2.018302,-0.37481326,0.1356507,-0.40647054,-0.11612181,-0.26580584,-0.62563485,1.7579426,7.5920134,0,0,0,0,0,0,0,0,0,0,0,0,0,0,0,0,0,0,0,0,0
113,-2.0622158,-0.23277853,0.13167661,-1.3470991,0.17149958,0.5885362,-2.4655788,2.9658175,7.620744,0,0,0,0,0,0,0,0,0,0,0,0,0,0,0,0,0,0,0,0,0
114,-2.066183,-0.23198442,0.12761185,-1.7231374,0.60932326,1.421573,0.65167177,1.7818847,9.090784,0,0,0,0,0,0,0,0,0,0,0,0,0,0,0,0,0,0,0,0,0
115,-2.0722084,-0.23062524,0.12783392,-1.7199416,0.6732391,0.29345798,-1.5426141,1.846528,11.049241,0,0,0,0,0,0,0,0,0,0,0,0,0,0,0,0,0,0,0,0,0
116,-2.0750117,-0.23090771,0.12952346,-0.46079904,0.46657783,0.24126002,-2.3255181,2.7563248,10.788273,0,0,0,0,0,0,0,0,0,0,0,0,0,0,0,0,0,0,0,0,0
117,-2.079749,-0.2297757,0.13085976,1.0476154,0.7968098,1.6900196,-2.1172225,1.9111716,10.644621,0,0,0,0,0,0,0,0,0,0,0,0,0,0,0,0,0,0,0,0,0
118,-2.305521,-0.4168964,0.16079263,1.0561376,0.19813119,1.5440785,-0.3179799,2.903568,9.782708,0,0,0,0,0,0,0,0,0,0,0,0,0,0,0,0,0,0,0,0,0
119,-2.302956,-0.4133901,0.15960376,1.0774428,-0.20666929,0.3168938,-1.1200374,2.7275944,11.013328,0,0,0,0,0,0,0,0,0,0,0,0,0,0,0,0,0,0,0,0,0
120,-2.3145285,-0.41215587,0.16661339,2.1512294,-0.797891,0.59386253,-5.3338323,4.008492,9.533711,0,0,0,0,0,0,0,0,0,0,0,0,0,0,0,0,0,0,0,0,0
121,-2.295768,-0.41651583,0.16625565,2.4537644,-0.50387806,2.344092,-0.9931448,4.8883615,6.6283474,0,0,0,0,0,0,0,0,0,0,0,0,0,0,0,0,0,0,0,0,0
122,-2.5987806,-0.66498935,-0.103063695,1.4353716,-1.4295928,1.3597877,1.3507787,1.5053543,8.716091,0,0,0,0,0,0,0,0,0,0,0,0,0,0,0,0,0,0,0,0,0
123,-2.6119134,-0.6612728,-0.09403714,1.0177879,-2.1305368,0.014358699,-2.0070891,3.0556,5.5282116,0,0,0,0,0,0,0,0,0,0,0,0,0,0,0,0,0,0,0,0,0
124,-2.6433892,-0.6607627,-0.08215035,0.87717307,-0.9885734,0.068687186,-2.6786628,4.12102,4.8997335,0,0,0,0,0,0,0,0,0,0,0,0,0,0,0,0,0,0,0,0,0
125,-2.6362169,-0.65818995,-0.08215737,-0.2061979,-0.08096649,0.02927107,0.5702689,4.0743327,6.896498,0,0,0,0,0,0,0,0,0,0,0,0,0,0,0,0,0,0,0,0,0
126,-2.6344314,-0.6560021,-0.07822517,-0.7814407,-0.29082358,-0.54490644,-1.1439795,6.1249666,9.951499,0,0,0,0,0,0,0,0,0,0,0,0,0,0,0,0,0,0,0,0,0
127,-2.5588634,-0.5587134,-0.07884842,0.01750762,-1.2570184,0.58746964,-3.6004305,3.3608606,11.5077305,0,0,0,0,0,0,0,0,0,0,0,0,0,0,0,0,0,0,0,0,0
128,-2.559428,-0.5562137,-0.07875868,0.4073944,-1.3070859,1.1659082,0.5690718,3.5476084,7.6387005,0,0,0,0,0,0,0,0,0,0,0,0,0,0,0,0,0,0,0,0,0
129,-2.5561574,-0.55426043,-0.0818456,0.47876713,-0.20453717,0.023944747,1.9289783,4.1222167,8.124723,0,0,0,0,0,0,0,0,0,0,0,0,0,0,0,0,0,0,0,0,0
130,-2.5369625,-0.5583307,-0.08383313,1.0401615,0.54967004,-0.103886984,0.9605238,5.0427876,5.2421045,0,0,0,0,0,0,0,0,0,0,0,0,0,0,0,0,0,0,0,0,0
131,-2.5403275,-0.606249,0.042883925,-0.45120874,1.3177257,0.15071121,0.31528643,5.0140567,6.817489,0,0,0,0,0,0,0,0,0,0,0,0,0,0,0,0,0,0,0,0,0
132,-2.5412035,-0.60319537,0.039763484,-0.8112681,0.3866846,0.43407154,1.0850223,4.684854,9.5492735,0,0,0,0,0,0,0,0,0,0,0,0,0,0,0,0,0,0,0,0,0
133,-2.5361066,-0.6037899,0.03815716,-0.010189254,1.7385051,0.3009135,0.2614169,4.730344,6.4427967,0,0,0,0,0,0,0,0,0,0,0,0,0,0,0,0,0,0,0,0,0
134,-2.54451,-0.60177004,0.038900502,0.032421324,1.1558055,0.16562492,-0.6771102,4.9482164,8.972271,0,0,0,0,0,0,0,0,0,0,0,0,0,0,0,0,0,0,0,0,0
135,-2.6343117,-0.51364887,0.024851453,-0.66639215,0.2364823,0.5224885,-0.11447277,4.1437645,8.176199,0,0,0,0,0,0,0,0,0,0,0,0,0,0,0,0,0,0,0,0,0
136,-2.635813,-0.51351273,0.024226755,-0.30100644,0.5581922,0.22208393,0.061501056,5.349245,9.634268,0,0,0,0,0,0,0,0,0,0,0,0,0,0,0,0,0,0,0,0,0
137,-2.6407206,-0.5106303,0.02417748,0.23269103,1.0641928,0.21356182,-0.22221185,3.9534256,10.208876,0,0,0,0,0,0,0,0,0,0,0,0,0,0,0,0,0,0,0,0,0
138,-2.6475704,-0.50859433,0.02558058,-0.111389376,0.37390143,0.28386927,-1.0003273,4.601057,10.572795,0,0,0,0,0,0,0,0,0,0,0,0,0,0,0,0,0,0,0,0,0
139,-2.6533287,-0.5070885,0.026928753,0.62896943,0.14167377,0.1091659,-0.9153332,4.5603557,9.81503,0,0,0,0,0,0,0,0,0,0,0,0,0,0,0,0,0,0,0,0,0
140,-2.6707256,-0.62044245,0.02781945,0.5203124,0.013842046,0.16136386,-0.49395373,4.706402,7.6291237,0,0,0,0,0,0,0,0,0,0,0,0,0,0,0,0,0,0,0,0,0
141,-2.6681023,-0.61852646,0.027366681,-0.23815584,0.42396885,0.15710281,-0.042646717,4.7638626,8.231265,0,0,0,0,0,0,0,0,0,0,0,0,0,0,0,0,0,0,0,0,0
142,-2.6682944,-0.6161569,0.027596695,-0.11458517,0.62210804,0.18693021,-0.35030162,4.9254713,9.0081835,0,0,0,0,0,0,0,0,0,0,0,0,0,0,0,0,0,0,0,0,0
143,-2.6684718,-0.6129386,0.027417079,0.44467866,0.11930323,0.11449222,-0.18151042,4.7734394,9.749189,0,0,0,0,0,0,0,0,0,0,0,0,0,0,0,0,0,0,0,0,0
144,-2.6673968,-0.77467936,0.037590478,1.2446922,0.08201897,0.04418477,-0.12524667,4.907515,8.793902,0,0,0,0,0,0,0,0,0,0,0,0,0,0,0,0,0,0,0,0,0
145,-2.6558132,-0.7722971,0.03629002,0.005789712,0.16830538,-0.0037521275,0.19557635,5.48332,7.1275387,0,0,0,0,0,0,0,0,0,0,0,0,0,0,0,0,0,0,0,0,0
146,-2.6606083,-0.76585615,0.037841596,-0.18169683,0.14593484,-0.07086378,-1.0458173,4.449025,9.144653,0,0,0,0,0,0,0,0,0,0,0,0,0,0,0,0,0,0,0,0,0
147,-2.6670084,-0.7604111,0.04026262,0.22523418,-0.3590005,0.18799546,-1.2158055,4.1341877,7.587225,0,0,0,0,0,0,0,0,0,0,0,0,0,0,0,0,0,0,0,0,0
148,-2.6646922,-0.75695634,0.040318042,0.3179122,-0.19388452,0.3307409,-0.3036147,4.7016134,7.050924,0,0,0,0,0,0,0,0,0,0,0,0,0,0,0,0,0,0,0,0,0
149,-2.7030387,-0.7575464,-0.009209243,-0.4693182,-0.08203175,0.0463153,0.31408933,5.5168395,7.33344,0,0,0,0,0,0,0,0,0,0,0,0,0,0,0,0,0,0,0,0,0
150,-2.7042797,-0.752173,-0.007893285,-0.57690996,0.017037839,-0.07192905,-0.51071316,4.803367,9.015367,0,0,0,0,0,0,0,0,0,0,0,0,0,0,0,0,0,0,0,0,0
151,-2.7035177,-0.7474607,-0.007382313,0.044139232,-0.079901226,0.0463153,-0.16235681,5.2235494,9.194932,0,0,0,0,0,0,0,0,0,0,0,0,0,0,0,0,0,0,0,0,0
152,-2.6993716,-0.7436575,-0.008364936,0.19540678,-0.18003608,-0.06979852,0.5163994,5.6976013,9.127894,0,0,0,0,0,0,0,0,0,0,0,0,0,0,0,0,0,0,0,0,0
153,-2.6430252,-0.71840817,0.023998952,-0.15719575,-0.03302959,-0.3126788,0.14649522,5.13257,8.713697,0,0,0,0,0,0,0,0,0,0,0,0,0,0,0,0,0,0,0,0,0
154,-2.6476805,-0.71323276,0.024831563,-0.37557495,0.37496668,-0.19230393,-0.6100725,4.6046486,9.28232,0,0,0,0,0,0,0,0,0,0,0,0,0,0,0,0,0,0,0,0,0
155,-2.6531055,-0.7075997,0.025919888,-0.079431444,0.3089203,-0.07192905,-0.74893624,4.3568487,9.43076,0,0,0,0,0,0,0,0,0,0,0,0,0,0,0,0,0,0,0,0,0
156,-2.6574085,-0.7033362,0.026987642,0.23162577,0.13315167,-0.03784059,-0.65436524,4.4526167,8.23366,0,0,0,0,0,0,0,0,0,0,0,0,0,0,0,0,0,0,0,0,0
157,-2.661667,-0.69970375,0.02826132,-0.028298749,0.10652005,-0.02612268,-0.7273884,4.6178164,8.000225,0,0,0,0,0,0,0,0,0,0,0,0,0,0,0,0,0,0,0,0,0
158,-2.663002,-0.68452656,0.043473653,-0.044277716,0.0010588728,0.020748954,-0.64598554,4.5220485,8.504205,0,0,0,0,0,0,0,0,0,0,0,0,0,0,0,0,0,0,0,0,0
159,-2.6633012,-0.6812526,0.043058813,0.016432503,-0.020251742,0.05484141,-0.18989012,4.7925935,8.352173,0,0,0,0,0,0,0,0,0,0,0,0,0,0,0,0,0,0,0,0,0
160,-2.6631,-0.67768645,0.042411353,-0.10607291,0.09799261,0.02075295,-0.09053075,4.660912,8.471883,0,0,0,0,0,0,0,0,0,0,0,0,0,0,0,0,0,0,0,0,0
161,-2.6649168,-0.6739395,0.042708546,-0.14655295,0.16190848,-0.0122702485,-0.50233346,4.684854,8.761581,0,0,0,0,0,0,0,0,0,0,0,0,0,0,0,0,0,0,0,0,0
162,-2.6566644,-0.6594506,0.04922842,-0.066658124,-0.03623071,-0.07299032,-0.54542905,4.5124717,8.704121,0,0,0,0,0,0,0,0,0,0,0,0,0,0,0,0,0,0,0,0,0
163,-2.6591053,-0.6556077,0.04963693,-0.041091777,-0.083102345,-0.050619766,-0.61845225,4.4837413,8.8645315,0,0,0,0,0,0,0,0,0,0,0,0,0,0,0,0,0,0,0,0,0
164,-2.661322,-0.65182006,0.049940072,-0.040026512,-0.0042727757,-0.038901858,-0.580145,4.50888,8.941146,0,0,0,0,0,0,0,0,0,0,0,0,0,0,0,0,0,0,0,0,0
165,-2.6640174,-0.64826244,0.050566845,0.012171445,0.12782001,0.015426626,-0.6998551,4.421492,8.591593,0,0,0,0,0,0,0,0,0,0,0,0,0,0,0,0,0,0,0,0,0
166,-2.6656568,-0.6450231,0.050842915,-0.0059380503,0.11503684,0.082538284,-0.55141455,4.5316253,8.554482,0,0,0,0,0,0,0,0,0,0,0,0,0,0,0,0,0,0,0,0,0
167,-2.6793487,-0.6416746,0.050731573,0.067565195,-0.07564549,0.05697194,-0.425719,4.654927,8.856153,0,0,0,0,0,0,0,0,0,0,0,0,0,0,0,0,0,0,0,0,0
168,-2.678532,-0.6392463,0.05057294,0.17941795,-0.08203708,0.04099297,-0.35748425,4.7866077,8.347384,0,0,0,0,0,0,0,0,0,0,0,0,0,0,0,0,0,0,0,0,0
169,-2.6769094,-0.63699436,0.050137047,-0.066658124,0.080948375,0.055906676,-0.23777416,4.8045645,8.259995,0,0,0,0,0,0,0,0,0,0,0,0,0,0,0,0,0,0,0,0,0
170,-2.6764903,-0.63402057,0.04967429,-0.17638037,0.07775258,0.046319295,-0.24136546,4.7494974,8.937555,0,0,0,0,0,0,0,0,0,0,0,0,0,0,0,0,0,0,0,0,0
171,-2.6821263,-0.63567793,0.050910555,0.0643694,0.029815687,0.03992771,-0.28805238,4.7147818,8.664616,0,0,0,0,0,0,0,0,0,0,0,0,0,0,0,0,0,0,0,0,0
172,-2.6811922,-0.63346267,0.050793115,0.10271892,-0.01705595,0.0047739823,-0.37065235,4.767454,8.224083,0,0,0,0,0,0,0,0,0,0,0,0,0,0,0,0,0,0,0,0,0
173,-2.6814005,-0.63104916,0.050956,-0.049613893,0.018097777,0.0015781892,-0.49275663,4.7099934,8.350976,0,0,0,0,0,0,0,0,0,0,0,0,0,0,0,0,0,0,0,0,0
174,-2.681742,-0.6284642,0.051031813,-0.05813601,0.015967248,0.015426626,-0.4628291,4.6405616,8.445546,0,0,0,0,0,0,0,0,0,0,0,0,0,0,0,0,0,0,0,0,0
175,-2.682175,-0.62548256,0.050859205,-0.04961256,-0.10227657,-0.030380277,-0.37304655,4.574721,8.792706,0,0,0,0,0,0,0,0,0,0,0,0,0,0,0,0,0,0,0,0,0
176,-2.6756723,-0.6222409,0.039104346,0.104850784,-0.07457969,-0.042098183,-0.4233248,4.670489,8.665813,0,0,0,0,0,0,0,0,0,0,0,0,0,0,0,0,0,0,0,0,0
177,-2.6748736,-0.6202162,0.03910139,-0.033633593,0.012771988,-0.04316345,-0.32516253,4.791396,8.342596,0,0,0,0,0,0,0,0,0,0,0,0,0,0,0,0,0,0,0,0,0
178,-2.6762252,-0.6172465,0.03946677,-0.1476169,0.045795184,-0.06446874,-0.51310736,4.565144,8.933964,0,0,0,0,0,0,0,0,0,0,0,0,0,0,0,0,0,0,0,0,0
179,-2.6784048,-0.6141157,0.04012866,0.04626124,-0.059665993,-0.03357607,-0.64478844,4.4143095,8.870518,0,0,0,0,0,0,0,0,0,0,0,0,0,0,0,0,0,0,0,0,0
180,-2.6793268,-0.6239684,0.031209204,0.08461076,-0.06073126,0.0037081854,-0.52148706,4.575918,8.625112,0,0,0,0,0,0,0,0,0,0,0,0,0,0,0,0,0,0,0,0,0
181,-2.6806087,-0.62099,0.031814937,0.062240206,-0.017055416,0.015426095,-0.53704935,4.494515,8.722076,0,0,0,0,0,0,0,0,0,0,0,0,0,0,0,0,0,0,0,0,0
182,-2.6814456,-0.61842054,0.032420237,0.091002345,-0.059665993,0.039927177,-0.53345805,4.6142254,8.582016,0,0,0,0,0,0,0,0,0,0,0,0,0,0,0,0,0,0,0,0,0
183,-2.680931,-0.6161107,0.032526515,-0.008067247,-0.017055416,0.028209267,-0.3203741,4.671686,8.486248,0,0,0,0,0,0,0,0,0,0,0,0,0,0,0,0,0,0,0,0,0
184,-2.6813493,-0.61341375,0.032778893,-0.06665679,0.060708888,0.01436083,-0.39938277,4.621408,8.84059,0,0,0,0,0,0,0,0,0,0,0,0,0,0,0,0,0,0,0,0,0
185,-2.6847491,-0.6050537,0.03907593,0.105916046,-0.015990151,0.034600854,-0.4221277,4.7004166,8.674192,0,0,0,0,0,0,0,0,0,0,0,0,0,0,0,0,0,0,0,0,0
186,-2.6838875,-0.6034033,0.039214548,0.120829746,-0.11079869,0.013295566,-0.38022915,4.7614684,8.258799,0,0,0,0,0,0,0,0,0,0,0,0,0,0,0,0,0,0,0,0,0
187,-2.6836803,-0.6014449,0.039338432,0.0047159255,-0.08097128,0.010099772,-0.38621467,4.708796,8.499416,0,0,0,0,0,0,0,0,0,0,0,0,0,0,0,0,0,0,0,0,0
188,-2.6836498,-0.59916633,0.03929256,-0.018719891,-0.026642796,0.01436083,-0.32516253,4.654927,8.773552,0,0,0,0,0,0,0,0,0,0,0,0,0,0,0,0,0,0,0,0,0
189,-2.6879146,-0.6025595,0.034610644,0.08461076,-0.033034384,0.032470327,-0.4149451,4.595072,8.969876,0,0,0,0,0,0,0,0,0,0,0,0,0,0,0,0,0,0,0,0,0
190,-2.6874335,-0.6003232,0.034517433,0.20285511,-0.08097128,0.07401564,-0.2665046,4.755483,8.895657,0,0,0,0,0,0,0,0,0,0,0,0,0,0,0,0,0,0,0,0,0
191,-2.6641998,-0.6043635,0.031670477,0.119764484,-0.015990151,0.044188235,0.5870283,5.6425347,5.422867,0,0,0,0,0,0,0,0,0,0,0,0,0,0,0,0,0,0,0,0,0
192,-2.666143,-0.6009726,0.031967983,-0.42565224,0.20878011,-0.1156009,-0.4568436,4.5603557,9.807847,0,0,0,0,0,0,0,0,0,0,0,0,0,0,0,0,0,0,0,0,0
193,-2.666335,-0.598523,0.0318766,0.1453295,0.034076743,0.038862444,-0.24136546,4.5699325,8.807071,0,0,0,0,0,0,0,0,0,0,0,0,0,0,0,0,0,0,0,0,0
194,-2.6665432,-0.61583817,0.024577707,0.13148107,-0.14275715,-0.028249215,-0.023493104,4.9099092,8.322245,0,0,0,0,0,0,0,0,0,0,0,0,0,0,0,0,0,0,0,0,0
195,-2.6639216,-0.61437875,0.024267118,-0.11672555,-0.050079145,-0.09216508,-0.072574235,4.83928,8.020576,0,0,0,0,0,0,0,0,0,0,0,0,0,0,0,0,0,0,0,0,0
196,-2.6626925,-0.6125262,0.024247542,-0.24029623,0.0234241,-0.093230344,-0.19228433,4.747103,8.255207,0,0,0,0,0,0,0,0,0,0,0,0,0,0,0,0,0,0,0,0,0
197,-2.661488,-0.6107107,0.024228357,-0.24029623,0.0234241,-0.093230344,-0.19228433,4.747103,8.255207,0,0,0,0,0,0,0,0,0,0,0,0,0,0,0,0,0,0,0,0,0
198,-2.660836,-0.6088212,0.0243805,-0.32019106,0.09373155,-0.079381905,-0.2677017,4.7734394,8.406042,0,0,0,0,0,0,0,0,0,0,0,0,0,0,0,0,0,0,0,0,0
199,-2.6433272,-0.5986839,0.031391215,-0.14868349,-0.0394265,-0.15181988,-0.5633856,4.5124717,8.674192,0,0,0,0,0,0,0,0,0,0,0,0,0,0,0,0,0,0,0,0,0
200,-2.6465728,-0.59572655,0.032079577,-0.17424983,0.071361,-0.110274576,-0.5909189,4.349666,8.966286,0,0,0,0,0,0,0,0,0,0,0,0,0,0,0,0,0,0,0,0,0
201,-2.6500652,-0.5925663,0.032788463,-0.111399226,0.09799261,-0.08683876,-0.61486095,4.264672,9.091981,0,0,0,0,0,0,0,0,0,0,0,0,0,0,0,0,0,0,0,0,0
202,-2.6384654,-0.5977317,0.0382437,0.067565195,-0.033034917,-0.09642614,-0.7273884,4.085107,8.901642,0,0,0,0,0,0,0,0,0,0,0,0,0,0,0,0,0,0,0,0,0
203,-2.6417632,-0.595307,0.039043806,0.06330414,0.012771456,-0.035706066,-0.66633624,4.3999443,8.498219,0,0,0,0,0,0,0,0,0,0,0,0,0,0,0,0,0,0,0,0,0
204,-2.6453686,-0.59269845,0.039884903,-0.081571825,0.07668732,-0.053815562,-0.6998551,4.3329067,8.610746,0,0,0,0,0,0,0,0,0,0,0,0,0,0,0,0,0,0,0,0,0
205,-2.6502492,-0.5894466,0.041054796,-0.11672555,0.066034675,-0.032510273,-0.8985738,4.2036195,9.124303,0,0,0,0,0,0,0,0,0,0,0,0,0,0,0,0,0,0,0,0,0
206,-2.6537578,-0.58632195,0.04162864,0.033476733,0.051120974,0.048449825,-0.5813421,4.198831,8.916007,0,0,0,0,0,0,0,0,0,0,0,0,0,0,0,0,0,0,0,0,0
207,-2.662908,-0.5888543,0.04390403,0.0036493295,0.046859916,0.035666652,-0.62802905,4.2778397,8.767567,0,0,0,0,0,0,0,0,0,0,0,0,0,0,0,0,0,0,0,0,0
208,-2.666622,-0.58664685,0.045316048,0.21350642,-0.15767086,0.030340329,-0.92491007,4.198831,8.042124,0,0,0,0,0,0,0,0,0,0,0,0,0,0,0,0,0,0,0,0,0
209,-2.6683204,-0.5842775,0.045802273,-0.031491615,-0.10120492,0.0622932,-0.580145,4.216788,8.318654,0,0,0,0,0,0,0,0,0,0,0,0,0,0,0,0,0,0,0,0,0
210,-2.6693418,-0.58209974,0.046332944,-0.092211686,0.07243319,0.10809957,-0.64598554,4.601057,8.91481,0,0,0,0,0,0,0,0,0,0,0,0,0,0,0,0,0,0,0,0,0
211,-2.6835833,-0.5788127,0.04779158,-0.0069905315,0.06284581,0.081467964,-0.53944355,4.257489,9.062054,0,0,0,0,0,0,0,0,0,0,0,0,0,0,0,0,0,0,0,0,0
212,-2.682328,-0.57729197,0.047783565,0.13895069,0.012778379,0.10490378,-0.39100307,4.538808,8.244433,0,0,0,0,0,0,0,0,0,0,0,0,0,0,0,0,0,0,0,0,0
213,-2.6799831,-0.57615346,0.047568932,0.004727377,-0.026636405,0.04524897,-0.3036147,4.696825,8.190564,0,0,0,0,0,0,0,0,0,0,0,0,0,0,0,0,0,0,0,0,0
214,-2.6782339,-0.5745819,0.04721302,-0.08368957,-0.024505876,0.011160509,-0.23178865,4.5196543,8.396465,0,0,0,0,0,0,0,0,0,0,0,0,0,0,0,0,0,0,0,0,0
215,-2.676508,-0.5728018,0.046652447,-0.0677106,-0.04261537,0.0068994514,-0.16594811,4.565144,8.649054,0,0,0,0,0,0,0,0,0,0,0,0,0,0,0,0,0,0,0,0,0
216,-2.6731431,-0.56714004,0.037615974,-0.017643176,-0.069246985,-0.028254274,-0.25573066,4.551976,8.599973,0,0,0,0,0,0,0,0,0,0,0,0,0,0,0,0,0,0,0,0,0
217,-2.6731682,-0.5654694,0.03801314,-0.11351697,-0.0117227025,-0.057016414,-0.49275663,4.505289,8.564059,0,0,0,0,0,0,0,0,0,0,0,0,0,0,0,0,0,0,0,0,0
218,-2.674173,-0.56325215,0.038485937,-0.15080123,-0.0010700581,-0.06979959,-0.5585972,4.431069,9.048885,0,0,0,0,0,0,0,0,0,0,0,0,0,0,0,0,0,0,0,0,0
219,-2.674998,-0.56071746,0.038651645,-0.03042635,-0.0021353224,-0.10069226,-0.4293103,4.2838254,9.172187,0,0,0,0,0,0,0,0,0,0,0,0,0,0,0,0,0,0,0,0,0
220,-2.6551116,-0.5597657,0.053544812,0.01751055,0.021300495,-0.13797651,-0.61845225,4.1772833,8.857349,0,0,0,0,0,0,0,0,0,0,0,0,0,0,0,0,0,0,0,0,0
221,-2.6578739,-0.557129,0.054089926,-0.035752673,0.0031909996,-0.08790908,-0.7249942,4.097078,8.953117,0,0,0,0,0,0,0,0,0,0,0,0,0,0,0,0,0,0,0,0,0
222,-2.6594415,-0.5549672,0.054267533,-0.020838968,0.033018403,-0.010144779,-0.5538088,4.24073,8.783129,0,0,0,0,0,0,0,0,0,0,0,0,0,0,0,0,0,0,0,0,0
223,-2.6610916,-0.5530439,0.054705024,-0.0069905315,-0.017049024,-0.035711125,-0.66394204,4.311359,8.702923,0,0,0,0,0,0,0,0,0,0,0,0,0,0,0,0,0,0,0,0,0
224,-2.6628256,-0.55116385,0.055189755,0.008988435,-0.043680634,-0.025058482,-0.6878841,4.311359,8.695741,0,0,0,0,0,0,0,0,0,0,0,0,0,0,0,0,0,0,0,0,0
225,-2.6622827,-0.55018663,0.053587522,4.663195E-4,-0.01811429,-0.013340573,-0.5813421,4.395156,8.832211,0,0,0,0,0,0,0,0,0,0,0,0,0,0,0,0,0,0,0,0,0
226,-2.663541,-0.54798424,0.053661298,0.0664986,-0.09056,-0.046358176,-0.51789576,4.2598834,9.032125,0,0,0,0,0,0,0,0,0,0,0,0,0,0,0,0,0,0,0,0,0
227,-2.6648803,-0.5461208,0.053958792,0.08673862,-0.06605891,-0.04955397,-0.5885247,4.2024226,8.573636,0,0,0,0,0,0,0,0,0,0,0,0,0,0,0,0,0,0,0,0,0
228,-2.6653802,-0.5444573,0.053964972,-0.122053206,-0.09482105,-0.04955397,-0.4676175,4.302979,8.608353,0,0,0,0,0,0,0,0,0,0,0,0,0,0,0,0,0,0,0,0,0
229,-2.6593282,-0.5320718,0.051318284,-0.075181566,-0.043688357,-0.046358176,-0.38621467,4.2383356,9.112331,0,0,0,0,0,0,0,0,0,0,0,0,0,0,0,0,0,0,0,0,0
230,-2.6603806,-0.5306894,0.05172551,0.12402288,-0.01279569,-0.038901325,-0.61964935,4.3185415,8.6299,0,0,0,0,0,0,0,0,0,0,0,0,0,0,0,0,0,0,0,0,0
231,-2.6611285,-0.52947253,0.05208708,0.017496435,-0.05540627,-0.015465509,-0.5945102,4.3281183,8.503007,0,0,0,0,0,0,0,0,0,0,0,0,0,0,0,0,0,0,0,0,0
232,-2.6607866,-0.52803105,0.05177251,-0.09435633,-0.073515765,5.1345746E-4,-0.32396543,4.386776,8.90643,0,0,0,0,0,0,0,0,0,0,0,0,0,0,0,0,0,0,0,0,0
233,-2.6606262,-0.5266735,0.05158963,0.0025827335,-0.059667327,-0.0016170715,-0.37903205,4.408324,8.88608,0,0,0,0,0,0,0,0,0,0,0,0,0,0,0,0,0,0,0,0,0
234,-2.6619363,-0.5296817,0.047017407,0.014300643,0.002118012,0.02501454,-0.44966102,4.3664255,8.628703,0,0,0,0,0,0,0,0,0,0,0,0,0,0,0,0,0,0,0,0,0
235,-2.6614432,-0.52839005,0.046980143,-0.06026787,0.064968616,0.035667185,-0.39459437,4.386776,8.732851,0,0,0,0,0,0,0,0,0,0,0,0,0,0,0,0,0,0,0,0,0
236,-2.6612678,-0.52703613,0.047022216,-0.01020044,-0.036231507,-0.017596038,-0.43769,4.4274774,8.910022,0,0,0,0,0,0,0,0,0,0,0,0,0,0,0,0,0,0,0,0,0
237,-2.6617475,-0.52542305,0.04717133,0.015365907,-0.042623095,-0.027183417,-0.48437694,4.257489,8.882488,0,0,0,0,0,0,0,0,0,0,0,0,0,0,0,0,0,0,0,0,0
238,-2.6649477,-0.52398413,0.050577175,0.0015174692,0.03301068,0.015427159,-0.52148706,4.1581297,8.850166,0,0,0,0,0,0,0,0,0,0,0,0,0,0,0,0,0,0,0,0,0
239,-2.664939,-0.52254426,0.050535623,0.02601855,0.018096978,0.007970309,-0.4281132,4.2874165,8.820239,0,0,0,0,0,0,0,0,0,0,0,0,0,0,0,0,0,0,0,0,0
240,-2.6651254,-0.5212887,0.050691403,0.046258576,-0.040492564,-0.055945557,-0.50712186,4.3077674,8.684967,0,0,0,0,0,0,0,0,0,0,0,0,0,0,0,0,0,0,0,0,0
241,-2.6663506,-0.519786,0.051140014,-0.015526761,0.017031714,-0.041031856,-0.64478844,4.221576,8.802282,0,0,0,0,0,0,0,0,0,0,0,0,0,0,0,0,0,0,0,0,0
242,-2.6667995,-0.51810026,0.051098954,-0.007003315,-0.01705595,0.014361362,-0.44606972,4.2299557,9.08001,0,0,0,0,0,0,0,0,0,0,0,0,0,0,0,0,0,0,0,0,0
243,-2.6686559,-0.52416855,0.04644807,0.09206628,-0.038361236,0.009035041,-0.37903205,4.326921,8.813056,0,0,0,0,0,0,0,0,0,0,0,0,0,0,0,0,0,0,0,0,0
244,-2.6685708,-0.5229061,0.046613738,0.03028094,-0.03729597,-0.020792363,-0.4724059,4.2898107,8.622718,0,0,0,0,0,0,0,0,0,0,0,0,0,0,0,0,0,0,0,0,0
245,-2.6690073,-0.5212496,0.04673788,-0.056005478,-0.023447536,-0.02718395,-0.473603,4.2239704,8.957906,0,0,0,0,0,0,0,0,0,0,0,0,0,0,0,0,0,0,0,0,0
246,-2.669269,-0.51976943,0.046874337,0.040933583,-0.029839123,0.012230834,-0.47839144,4.2862196,8.92319,0,0,0,0,0,0,0,0,0,0,0,0,0,0,0,0,0,0,0,0,0
247,-2.673137,-0.5307537,0.04300885,0.09100101,-0.011729627,0.03353612,-0.37663785,4.349666,8.744822,0,0,0,0,0,0,0,0,0,0,0,0,0,0,0,0,0,0,0,0,0
248,-2.6726315,-0.52921295,0.042984456,0.03028094,-0.047948617,0.005839247,-0.36945525,4.312556,8.835801,0,0,0,0,0,0,0,0,0,0,0,0,0,0,0,0,0,0,0,0,0
249,-2.672125,-0.5280389,0.043149818,0.06330414,-0.046883352,0.009035041,-0.4436755,4.4047327,8.649054,0,0,0,0,0,0,0,0,0,0,0,0,0,0,0,0,0,0,0,0,0
250,-2.67129,-0.52711755,0.043328363,0.06649993,-0.045818087,0.007969776,-0.4412813,4.43466,8.465898,0,0,0,0,0,0,0,0,0,0,0,0,0,0,0,0,0,0,0,0,0
251,-2.6702685,-0.525984,0.04322962,-0.028308604,-0.08416761,-0.0037481328,-0.33354223,4.419098,8.683769,0,0,0,0,0,0,0,0,0,0,0,0,0,0,0,0,0,0,0,0,0
252,-2.6678998,-0.5198718,0.03532303,-0.029373867,-0.030904386,-0.01759657,-0.36586395,4.4538136,8.857349,0,0,0,0,0,0,0,0,0,0,0,0,0,0,0,0,0,0,0,0,0
253,-2.6679692,-0.51851934,0.035610527,0.03241147,-0.08842867,-0.02718395,-0.4388871,4.2922053,8.823831,0,0,0,0,0,0,0,0,0,0,0,0,0,0,0,0,0,0,0,0,0
254,-2.6673393,-0.5174262,0.035722185,0.12082842,-0.21412987,-0.04848924,-0.35628715,4.3281183,8.644265,0,0,0,0,0,0,0,0,0,0,0,0,0,0,0,0,0,0,0,0,0
255,-2.6668882,-0.516238,0.03569846,-0.028308604,-0.10121184,-0.06979453,-0.3012205,4.300585,8.718486,0,0,0,0,0,0,0,0,0,0,0,0,0,0,0,0,0,0,0,0,0
256,-2.6565993,-0.50548244,0.04331314,-0.054940213,-0.0032075113,-0.07618611,-0.4269161,4.172495,9.105149,0,0,0,0,0,0,0,0,0,0,0,0,0,0,0,0,0,0,0,0,0
257,-2.657195,-0.504206,0.043069445,0.07502205,-0.2641973,-0.13157986,-0.28206688,4.2850223,9.058462,0,0,0,0,0,0,0,0,0,0,0,0,0,0,0,0,0,0,0,0,0
258,-2.657163,-0.5033073,0.042762596,0.15385161,-0.36539742,-0.17738624,-0.24256256,4.326921,8.746018,0,0,0,0,0,0,0,0,0,0,0,0,0,0,0,0,0,0,0,0,0
259,-2.6563914,-0.5031729,0.042675335,0.106991164,-0.30147544,-0.14223704,-0.3203741,4.5220485,8.3390045,0,0,0,0,0,0,0,0,0,0,0,0,0,0,0,0,0,0,0,0,0
260,-2.6552637,-0.50277007,0.04219261,-0.05066797,-0.40906712,-0.09110434,-0.1599626,4.5256395,8.627506,0,0,0,0,0,0,0,0,0,0,0,0,0,0,0,0,0,0,0,0,0
261,-2.6417527,-0.49664053,-0.006340623,0.012182631,-0.30893227,-0.07299485,0.10220248,4.537611,8.805874,0,0,0,0,0,0,0,0,0,0,0,0,0,0,0,0,0,0,0,0,0
262,-2.6409323,-0.49571776,-0.006522771,-0.0527985,-0.44848192,-0.15608548,0.13811551,4.324527,8.939949,0,0,0,0,0,0,0,0,0,0,0,0,0,0,0,0,0,0,0,0,0
263,-2.6409156,-0.4946382,-0.0063880207,0.051597413,-0.60933685,-0.19656552,-0.0019452889,4.2838254,9.058462,0,0,0,0,0,0,0,0,0,0,0,0,0,0,0,0,0,0,0,0,0
264,-2.6401663,-0.4934335,-0.007072461,0.06651112,-0.40054503,-0.16034654,0.37035307,4.23235,9.114726,0,0,0,0,0,0,0,0,0,0,0,0,0,0,0,0,0,0,0,0,0
265,-2.6386788,-0.49532354,-0.01793105,0.010052102,-0.03515932,0.029270537,0.063895255,4.1701007,8.76996,0,0,0,0,0,0,0,0,0,0,0,0,0,0,0,0,0,0,0,0,0
266,-2.6390193,-0.4940086,-0.018097294,0.056923736,-0.06924778,0.20930022,0.24585459,4.2922053,9.3661175,0,0,0,0,0,0,0,0,0,0,0,0,0,0,0,0,0,0,0,0,0
267,-2.6382787,-0.49301904,-0.018931255,0.4350926,-0.31319332,0.0931864,0.5511153,4.3927617,9.205706,0,0,0,0,0,0,0,0,0,0,0,0,0,0,0,0,0,0,0,0,0
268,-2.6378274,-0.4923598,-0.019598462,0.5128569,-0.75101703,-0.06766853,0.46133274,4.373608,8.814254,0,0,0,0,0,0,0,0,0,0,0,0,0,0,0,0,0,0,0,0,0
269,-2.6335685,-0.49304014,-0.021127991,0.42763576,-0.71053696,-0.15395494,0.7989152,4.83928,8.289924,0,0,0,0,0,0,0,0,0,0,0,0,0,0,0,0,0,0,0,0,0
270,-2.6150267,-0.5379669,-0.08792192,0.2017997,-0.37497866,-0.04955903,0.5918167,4.553173,8.790312,0,0,0,0,0,0,0,0,0,0,0,0,0,0,0,0,0,0,0,0,0
271,-2.6139033,-0.5371001,-0.08792894,0.46705055,-0.48576617,0.020748422,0.76419926,4.675277,8.634688,0,0,0,0,0,0,0,0,0,0,0,0,0,0,0,0,0,0,0,0,0
272,-2.606735,-0.5380394,-0.08978045,0.6151223,-0.6689916,0.0026389263,1.4226047,5.2379146,7.795521,0,0,0,0,0,0,0,0,0,0,0,0,0,0,0,0,0,0,0,0,0
273,-2.5975726,-0.53962135,-0.09289925,0.28382507,-1.2698008,-0.2785909,1.8571523,5.41748,7.405266,0,0,0,0,0,0,0,0,0,0,0,0,0,0,0,0,0,0,0,0,0
274,-2.5591452,-0.57001036,-0.2008688,0.1655807,-0.8468908,-0.21360976,1.3771149,4.979341,7.904457,0,0,0,0,0,0,0,0,0,0,0,0,0,0,0,0,0,0,0,0,0
275,-2.559116,-0.5688547,-0.19994594,0.2167134,-0.61572844,0.014356835,1.4513352,5.295376,9.305065,0,0,0,0,0,0,0,0,0,0,0,0,0,0,0,0,0,0,0,0,0
276,-2.5530164,-0.56988233,-0.20169975,0.45001218,-0.66579264,0.005832589,2.1564276,5.429451,7.289147,0,0,0,0,0,0,0,0,0,0,0,0,0,0,0,0,0,0,0,0,0
277,-2.5495224,-0.56985265,-0.20324697,-0.053857904,-1.2985598,-0.28072354,2.4138043,5.597045,8.423999,0,0,0,0,0,0,0,0,0,0,0,0,0,0,0,0,0,0,0,0,0
278,-2.5486684,-0.5689586,-0.2050034,0.3562689,-1.3251914,-0.40109843,2.5598505,5.168483,8.544906,0,0,0,0,0,0,0,0,0,0,0,0,0,0,0,0,0,0,0,0,0
279,-2.5035422,-0.6431925,-0.35439622,0.70247984,-1.3699324,-0.47140586,2.6412535,5.7586536,7.8529816,0,0,0,0,0,0,0,0,0,0,0,0,0,0,0,0,0,0,0,0,0
280,-2.5019908,-0.6424737,-0.35427988,0.7983536,-1.4498273,-0.5129512,2.7142766,5.521628,7.4687123,0,0,0,0,0,0,0,0,0,0,0,0,0,0,0,0,0,0,0,0,0
281,-2.4941924,-0.6446297,-0.35766673,0.83563787,-1.654358,-0.57047546,3.5091515,6.541558,6.077681,0,0,0,0,0,0,0,0,0,0,0,0,0,0,0,0,0,0,0,0,0
282,-2.4868512,-0.6468385,-0.36131993,0.50434065,-0.8319739,-0.5534312,3.5259109,6.4505777,5.877765,0,0,0,0,0,0,0,0,0,0,0,0,0,0,0,0,0,0,0,0,0
283,-2.4715278,-0.67647785,-0.3126901,0.07716962,0.7254427,0.086792685,2.0510826,6.5008564,7.277176,0,0,0,0,0,0,0,0,0,0,0,0,0,0,0,0,0,0,0,0,0
284,-2.4771805,-0.6754712,-0.31139153,0.40527105,0.3504696,0.34458667,2.0846014,6.1477113,8.240842,0,0,0,0,0,0,0,0,0,0,0,0,0,0,0,0,0,0,0,0,0
285,-2.4717584,-0.67806554,-0.3138748,0.92618537,-0.5347651,-0.120933875,2.8567317,7.04434,6.1387334,0,0,0,0,0,0,0,0,0,0,0,0,0,0,0,0,0,0,0,0,0
286,-2.4685977,-0.6810315,-0.31530368,0.7269809,-0.04154771,-1.0977813,2.08101,6.010045,5.130774,0,0,0,0,0,0,0,0,0,0,0,0,0,0,0,0,0,0,0,0,0
287,-2.504558,-0.6857804,-0.30375367,-0.1944728,0.5400867,-0.5331912,-1.3833997,6.986879,5.1547165,0,0,0,0,0,0,0,0,0,0,0,0,0,0,0,0,0,0,0,0,0
288,-2.4634295,-0.645615,-0.18394142,-1.2501498,0.7403564,1.071097,0.8348282,6.4002995,6.9743094,0,0,0,0,0,0,0,0,0,0,0,0,0,0,0,0,0,0,0,0,0
289,-2.4702036,-0.64661443,-0.18466832,-2.0554898,0.36112225,0.23166865,1.7254713,6.591836,7.705738,0,0,0,0,0,0,0,0,0,0,0,0,0,0,0,0,0,0,0,0,0
290,-2.4845552,-0.64578855,-0.18074128,-1.2171266,0.8628618,-0.13478231,-0.104895964,6.2123547,8.977059,0,0,0,0,0,0,0,0,0,0,0,0,0,0,0,0,0,0,0,0,0
291,-2.493036,-0.6453806,-0.17958279,-0.61312175,1.6958985,0.19971071,0.9581296,5.647323,7.762002,0,0,0,0,0,0,0,0,0,0,0,0,0,0,0,0,0,0,0,0,0
292,-2.4750283,-0.54838383,0.077415,-0.7920792,1.8865849,-0.31268415,1.1341034,5.783793,8.146272,0,0,0,0,0,0,0,0,0,0,0,0,0,0,0,0,0,0,0,0,0
293,-2.479279,-0.54738027,0.072667606,-0.7057928,1.6586183,-0.4905833,1.4046482,4.797382,8.706514,0,0,0,0,0,0,0,0,0,0,0,0,0,0,0,0,0,0,0,0,0
294,-2.476789,-0.5479275,0.067863226,-0.77290446,1.6511614,-0.5310633,1.4920366,5.7945666,8.821436,0,0,0,0,0,0,0,0,0,0,0,0,0,0,0,0,0,0,0,0,0
295,-2.4741495,-0.5482758,0.064133696,-0.7515992,1.1526177,-0.8740785,1.0527005,5.643732,8.833407,0,0,0,0,0,0,0,0,0,0,0,0,0,0,0,0,0,0,0,0,0
296,-2.4761598,-0.54756093,0.06418675,-0.5108494,0.787232,-0.7089625,-0.52028996,4.386776,7.7787614,0,0,0,0,0,0,0,0,0,0,0,0,0,0,0,0,0,0,0,0,0
297,-2.403504,-0.4679607,0.19486399,-1.2629261,0.24181662,0.42660937,0.20395605,5.707178,7.6853876,0,0,0,0,0,0,0,0,0,0,0,0,0,0,0,0,0,0,0,0,0
298,-2.4015622,-0.46724847,0.18613267,-1.6719877,-0.13102593,-0.14330709,2.1312885,4.109049,8.645462,0,0,0,0,0,0,0,0,0,0,0,0,0,0,0,0,0,0,0,0,0
299,-2.401047,-0.46495897,0.17961234,-0.8826267,-0.3984073,-1.5473256,1.141286,3.0137014,8.10557,0,0,0,0,0,0,0,0,0,0,0,0,0,0,0,0,0,0,0,0,0
300,-2.403194,-0.46254316,0.17656943,-0.59713584,-0.55500114,-1.339599,-0.21742344,2.8377275,7.914034,0,0,0,0,0,0,0,0,0,0,0,0,0,0,0,0,0,0,0,0,0
301,-2.285656,-0.32037696,0.18358849,-1.0765048,-0.053261623,-0.8378595,-0.7070377,3.719991,8.876503,0,0,0,0,0,0,0,0,0,0,0,0,0,0,0,0,0,0,0,0,0
302,-2.286723,-0.3205671,0.18091452,-1.6187245,0.35260412,-0.6311982,-0.49874213,3.4243069,9.988609,0,0,0,0,0,0,0,0,0,0,0,0,0,0,0,0,0,0,0,0,0
303,-2.2851822,-0.3195045,0.1756756,-1.8477563,0.54648226,-1.3364033,0.75342536,2.5504234,9.277532,0,0,0,0,0,0,0,0,0,0,0,0,0,0,0,0,0,0,0,0,0
304,-2.2819552,-0.31682208,0.16957632,-1.274644,0.7755141,-2.3771665,1.4513352,2.1110873,11.162966,0,0,0,0,0,0,0,0,0,0,0,0,0,0,0,0,0,0,0,0,0
305,-2.0830636,-0.20121178,0.2383499,-0.5864832,0.16618285,-1.5313467,-1.2541127,4.4143095,10.879252,0,0,0,0,0,0,0,0,0,0,0,0,0,0,0,0,0,0,0,0,0
306,-2.0828545,-0.20086855,0.23425934,-0.86558247,-0.7882941,-0.05595541,-0.37065235,2.0404584,10.95467,0,0,0,0,0,0,0,0,0,0,0,0,0,0,0,0,0,0,0,0,0
307,-2.0865996,-0.19677578,0.2297515,-0.8751699,-0.6647234,-1.3225548,-0.06898294,-0.02932897,7.7787614,0,0,0,0,0,0,0,0,0,0,0,0,0,0,0,0,0,0,0,0,0
308,-2.1106403,-0.19613396,0.23562814,-0.5268284,0.17257443,-1.8125764,-5.9623103,1.9818004,10.327389,0,0,0,0,0,0,0,0,0,0,0,0,0,0,0,0,0,0,0,0,0
309,-2.11818,-0.19401012,0.23720293,-0.09326843,0.4495416,-0.16354606,-2.9982886,0.87448215,9.221268,0,0,0,0,0,0,0,0,0,0,0,0,0,0,0,0,0,0,0,0,0
310,-2.0819554,-0.15799397,0.3266669,-0.27755916,0.81918836,-1.4226886,0.66843116,-1.8920178,7.916428,0,0,0,0,0,0,0,0,0,0,0,0,0,0,0,0,0,0,0,0,0
311,-2.0842624,-0.15818061,0.32763338,-0.39473826,1.0247843,-2.781966,-3.93921,1.8166006,10.007763,0,0,0,0,0,0,0,0,0,0,0,0,0,0,0,0,0,0,0,0,0
312,-2.0759647,-0.15988812,0.32701084,-0.48102468,0.36964676,-0.24450615,-3.3310828,2.8329391,10.903194,0,0,0,0,0,0,0,0,0,0,0,0,0,0,0,0,0,0,0,0,0
313,-2.0718303,-0.15873967,0.32115898,-0.3723677,0.02876214,0.27427763,-0.34551322,1.0324994,10.035296,0,0,0,0,0,0,0,0,0,0,0,0,0,0,0,0,0,0,0,0,0
314,-1.9205618,-0.11593324,0.36295283,0.07930441,0.16724652,-1.1691557,-2.9468133,1.240795,10.189722,0,0,0,0,0,0,0,0,0,0,0,0,0,0,0,0,0,0,0,0,0
315,-1.9184434,-0.1165473,0.35786998,0.92086333,0.5656554,-0.59178233,-1.0601825,1.441908,9.704897,0,0,0,0,0,0,0,0,0,0,0,0,0,0,0,0,0,0,0,0,0
316,-1.9128945,-0.119033195,0.35139647,0.43936378,0.083090626,-0.006952182,-0.28685528,2.0608091,8.385692,0,0,0,0,0,0,0,0,0,0,0,0,0,0,0,0,0,0,0,0,0
317,-1.9113449,-0.11972305,0.34967852,-0.20405594,-0.60080916,-0.02825747,-2.5302222,1.4921862,9.305065,0,0,0,0,0,0,0,0,0,0,0,0,0,0,0,0,0,0,0,0,0
318,-1.9108436,-0.11844494,0.3423137,-0.30845183,-0.54328483,0.15496801,0.15726912,0.47345337,8.471883,0,0,0,0,0,0,0,0,0,0,0,0,0,0,0,0,0,0,0,0,0
319,-1.94566,-0.07831212,0.27676874,-0.59287745,-0.21092236,0.21355756,0.5858312,1.6585833,7.7811556,0,0,0,0,0,0,0,0,0,0,0,0,0,0,0,0,0,0,0,0,0
320,-1.945364,-0.077840544,0.2726708,-0.56837636,-0.42610577,0.29132184,-0.8339304,0.6362591,11.583148,0,0,0,0,0,0,0,0,0,0,0,0,0,0,0,0,0,0,0,0,0
321,-1.948295,-0.07345029,0.2662538,0.05373806,-0.7339672,-0.041040644,0.45415014,-1.3449428,9.41879,0,0,0,0,0,0,0,0,0,0,0,0,0,0,0,0,0,0,0,0,0
322,-1.9498565,-0.07123167,0.26089162,-0.09326843,-0.18961707,-1.818967,0.017208325,-0.3477578,9.27394,0,0,0,0,0,0,0,0,0,0,0,0,0,0,0,0,0,0,0,0,0
323,-1.7217668,0.04754829,0.2883364,-0.41604355,0.18109496,-1.9009924,-3.7572505,2.1086931,11.077971,0,0,0,0,0,0,0,0,0,0,0,0,0,0,0,0,0,0,0,0,0
324,-1.7245326,0.044230107,0.28476694,-0.3819551,-0.21198761,0.17201224,-1.102081,1.1953052,9.991004,0,0,0,0,0,0,0,0,0,0,0,0,0,0,0,0,0,0,0,0,0
325,-1.7297252,0.04701909,0.27347124,-0.41923934,-0.56885123,0.41276202,2.3695116,-1.5927427,8.239645,0,0,0,0,0,0,0,0,0,0,0,0,0,0,0,0,0,0,0,0,0
326,-1.7337353,0.046097748,0.26780033,-0.22857113,-0.0032035164,-1.3108305,0.09501988,-0.008978256,9.43076,0,0,0,0,0,0,0,0,0,0,0,0,0,0,0,0,0,0,0,0,0
327,-1.7341985,0.043050986,0.26526308,0.46917707,0.27056944,-1.1638241,-1.7006314,1.2910733,11.98657,0,0,0,0,0,0,0,0,0,0,0,0,0,0,0,0,0,0,0,0,0
328,-1.6251264,-0.0352029,0.25394115,0.8217796,-0.299347,-0.34037462,0.31887773,0.88286185,10.340557,0,0,0,0,0,0,0,0,0,0,0,0,0,0,0,0,0,0,0,0,0
329,-1.6283255,-0.03559841,0.24644464,0.7408195,-0.57205474,-0.63332236,1.1712135,0.53450555,9.64145,0,0,0,0,0,0,0,0,0,0,0,0,0,0,0,0,0,0,0,0,0
330,-1.6266425,-0.0393975,0.24093002,0.94641554,-0.31319547,-0.82187414,0.25902268,2.0296845,8.841787,0,0,0,0,0,0,0,0,0,0,0,0,0,0,0,0,0,0,0,0,0
331,-1.6309475,-0.038823202,0.23377593,-1.2480292,-0.5976211,-0.08471116,2.2390275,0.20530279,19.086576,0,0,0,0,0,0,0,0,0,0,0,0,0,0,0,0,0,0,0,0,0
332,-1.5596331,-0.04862701,0.2143135,-0.046410907,0.50705814,-0.5981686,-0.9117419,-0.6697779,10.844537,0,0,0,0,0,0,0,0,0,0,0,0,0,0,0,0,0,0,0,0,0
333,-1.5651481,-0.048069503,0.20814086,0.20605676,0.10012713,-0.6322571,1.0239701,0.22565351,10.824186,0,0,0,0,0,0,0,0,0,0,0,0,0,0,0,0,0,0,0,0,0
334,-1.5707955,-0.047195382,0.20140702,-0.256268,-0.742497,-1.2650242,1.283741,0.04369418,9.931149,0,0,0,0,0,0,0,0,0,0,0,0,0,0,0,0,0,0,0,0,0
335,-1.580178,-0.04426821,0.19686025,0.019635487,-0.116121545,0.24658608,0.22789808,-0.87448215,8.78672,0,0,0,0,0,0,0,0,0,0,0,0,0,0,0,0,0,0,0,0,0
336,-1.5842537,-0.044730674,0.19309044,-0.12417521,0.05645129,0.016488962,-0.08334815,0.6721721,9.958682,0,0,0,0,0,0,0,0,0,0,0,0,0,0,0,0,0,0,0,0,0
337,-1.579295,-0.02761974,0.2003206,-0.21685322,0.03940706,-0.72919613,-0.24375966,-0.54767364,9.655815,0,0,0,0,0,0,0,0,0,0,0,0,0,0,0,0,0,0,0,0,0
338,-1.5906426,-0.025555639,0.19926322,-0.35320705,0.09586608,-0.43624842,-1.6407764,-0.84575176,11.046846,0,0,0,0,0,0,0,0,0,0,0,0,0,0,0,0,0,0,0,0,0
339,-1.5935402,-0.026439091,0.19528218,0.017504958,-0.20347323,-0.020795293,-0.0019452889,0.6434417,9.212888,0,0,0,0,0,0,0,0,0,0,0,0,0,0,0,0,0,0,0,0,0
340,-1.599357,-0.025781827,0.19215162,0.03987551,-0.13636157,-0.060210075,-0.37903205,-0.06284779,9.775525,0,0,0,0,0,0,0,0,0,0,0,0,0,0,0,0,0,0,0,0,0
341,-1.6045144,-0.028108604,0.17997935,0.019635487,-0.06498885,5.099953E-4,-0.16714521,-0.12509704,9.692925,0,0,0,0,0,0,0,0,0,0,0,0,0,0,0,0,0,0,0,0,0
342,-1.6104763,-0.027269488,0.17756134,0.0239048,-0.070310645,5.0679955E-4,-0.65077394,-0.15263036,11.002554,0,0,0,0,0,0,0,0,0,0,0,0,0,0,0,0,0,0,0,0,0
343,-1.6156952,-0.026524156,0.17446403,-0.02935842,0.07350005,5.0679955E-4,-0.23777416,-0.10474633,10.474632,0,0,0,0,0,0,0,0,0,0,0,0,0,0,0,0,0,0,0,0,0
344,-1.6204127,-0.0258712,0.17150187,0.104864895,-0.2876246,-5.584649E-4,-0.2653075,-0.061650693,10.064027,0,0,0,0,0,0,0,0,0,0,0,0,0,0,0,0,0,0,0,0,0
345,-1.6252238,-0.024665182,0.16708788,-0.0069878683,0.18641809,-0.046364836,0.44696754,-0.31304187,9.077616,0,0,0,0,0,0,0,0,0,0,0,0,0,0,0,0,0,0,0,0,0
346,-1.6265639,-0.026965622,0.16054013,-0.018705778,0.004257862,-0.0016237294,0.016011223,0.16699557,8.953117,0,0,0,0,0,0,0,0,0,0,0,0,0,0,0,0,0,0,0,0,0
347,-1.6306611,-0.026386388,0.15722923,0.007925834,-0.005329518,-0.0026889937,0.049530048,-0.019752163,9.895236,0,0,0,0,0,0,0,0,0,0,0,0,0,0,0,0,0,0,0,0,0
348,-1.6346154,-0.025891656,0.15398109,0.0015342471,-0.0042642537,-0.0016237294,0.050727148,0.01616086,9.7958765,0,0,0,0,0,0,0,0,0,0,0,0,0,0,0,0,0,0,0,0,0
349,-1.6385243,-0.02539948,0.15083946,0.00473004,-0.0042642537,-0.0016237294,0.030376434,0.012569559,9.79827,0,0,0,0,0,0,0,0,0,0,0,0,0,0,0,0,0,0,0,0,0
350,-1.6422517,-0.025302934,0.1473274,0.003664776,-0.0042642537,-0.0016237294,0.03995324,-0.01616086,9.767146,0,0,0,0,0,0,0,0,0,0,0,0,0,0,0,0,0,0,0,0,0
351,-1.6460153,-0.02481276,0.14414287,0.003664776,-0.005329518,-0.0026889937,0.11656769,0.0077811554,9.7958765,0,0,0,0,0,0,0,0,0,0,0,0,0,0,0,0,0,0,0,0,0
352,-1.649807,-0.024293264,0.14108051,0.0025995115,-0.0063947826,-0.0026889937,0.08783727,-0.011372458,9.7863,0,0,0,0,0,0,0,0,0,0,0,0,0,0,0,0,0,0,0,0,0
353,-1.6535397,-0.023801278,0.13817474,0.003664776,-0.005329518,-0.0026889937,0.041150343,-0.002992752,9.779117,0,0,0,0,0,0,0,0,0,0,0,0,0,0,0,0,0,0,0,0,0
354,-1.6570845,-0.023375547,0.1353171,0.0025995115,-0.0042642537,5.0679955E-4,0.045938745,0.024540568,9.758766,0,0,0,0,0,0,0,0,0,0,0,0,0,0,0,0,0,0,0,0,0
355,-1.6603588,-0.023360591,0.13193852,0.00473004,-0.003198989,-0.0016237294,0.057909753,0.0017956513,9.824607,0,0,0,0,0,0,0,0,0,0,0,0,0,0,0,0,0,0,0,0,0
356,-1.663866,-0.022884829,0.12917912,0.003664776,-0.003198989,-0.0026889937,0.059106853,-0.004189853,9.799467,0,0,0,0,0,0,0,0,0,0,0,0,0,0,0,0,0,0,0,0,0
357,-1.6671094,-0.022479642,0.12631863,0.003664776,-0.0042642537,-0.0016237294,0.13572131,0.025737667,9.801862,0,0,0,0,0,0,0,0,0,0,0,0,0,0,0,0,0,0,0,0,0
358,-1.6706276,-0.021957994,0.12372051,0.003664776,-0.003198989,-0.0016237294,0.035164837,-0.035314474,9.801862,0,0,0,0,0,0,0,0,0,0,0,0,0,0,0,0,0,0,0,0,0
359,-1.6737962,-0.021982342,0.12067659,0.0026037726,-0.0042618564,-0.003755856,0.008828619,0.013766659,9.7803135,0,0,0,0,0,0,0,0,0,0,0,0,0,0,0,0,0,0,0,0,0
360,-1.6771939,-0.021607742,0.11815415,0.0026037726,-0.005327121,-0.0026905916,0.05312135,0.03172317,9.753978,0,0,0,0,0,0,0,0,0,0,0,0,0,0,0,0,0,0,0,0,0
361,-1.6807764,-0.021088645,0.11562362,0.0047343015,-0.0042618564,-0.0026905916,0.08185177,-0.04249708,9.775525,0,0,0,0,0,0,0,0,0,0,0,0,0,0,0,0,0,0,0,0,0
362,-1.6841142,-0.020658301,0.113092236,0.0026037726,-0.0042618564,-0.0026905916,0.10699089,-0.004189853,9.774328,0,0,0,0,0,0,0,0,0,0,0,0,0,0,0,0,0,0,0,0,0
363,-1.6871976,-0.020349067,0.1106583,0.0047343015,-0.0042618564,-5.6006276E-4,0.08424597,0.050876785,9.78989,0,0,0,0,0,0,0,0,0,0,0,0,0,0,0,0,0,0,0,0,0
364,-1.690292,-0.020280926,0.10788216,0.0026037726,-0.0042618564,-5.6006276E-4,0.0052373162,-0.049679685,9.7563715,0,0,0,0,0,0,0,0,0,0,0,0,0,0,0,0,0,0,0,0,0
365,-1.6934395,-0.01991082,0.10566237,0.0047343015,-0.005327121,-0.0026905916,0.030376434,0.017357962,9.775525,0,0,0,0,0,0,0,0,0,0,0,0,0,0,0,0,0,0,0,0,0
366,-1.6963656,-0.019596992,0.1033623,0.003669037,-0.0063923853,-5.6006276E-4,0.09142858,0.04129998,9.787497,0,0,0,0,0,0,0,0,0,0,0,0,0,0,0,0,0,0,0,0,0
367,-1.6995114,-0.019159677,0.101171486,0.0026037726,-0.005327121,-0.0016253272,0.060303956,-0.022146367,9.76116,0,0,0,0,0,0,0,0,0,0,0,0,0,0,0,0,0,0,0,0,0
368,-1.7019646,-0.019679664,0.09828606,0.0026037726,-0.0063923853,-0.003755856,0.08304887,0.019752163,9.770737,0,0,0,0,0,0,0,0,0,0,0,0,0,0,0,0,0,0,0,0,0
369,-1.704817,-0.019336192,0.09619473,0.0047343015,-0.005327121,-0.0026905916,0.061501056,0.024540568,9.792285,0,0,0,0,0,0,0,0,0,0,0,0,0,0,0,0,0,0,0,0,0
370,-1.7079321,-0.018857814,0.09423814,0.003669037,-0.0042618564,-5.6006276E-4,0.016011223,-0.044891283,9.7958765,0,0,0,0,0,0,0,0,0,0,0,0,0,0,0,0,0,0,0,0,0
371,-1.7107666,-0.018457375,0.09215884,0.0047343015,-0.005327121,-0.0058863848,0.09501988,-0.011372458,9.768343,0,0,0,0,0,0,0,0,0,0,0,0,0,0,0,0,0,0,0,0,0
372,-1.7134603,-0.018106539,0.090109676,0.0047343015,-0.0042618564,-5.6006276E-4,0.10100538,0.008978256,9.80665,0,0,0,0,0,0,0,0,0,0,0,0,0,0,0,0,0,0,0,0,0
373,-1.715752,-0.01814033,0.08783229,0.0026037726,-0.0031965922,-0.0016253272,0.031573534,-0.019752163,9.783905,0,0,0,0,0,0,0,0,0,0,0,0,0,0,0,0,0,0,0,0,0
374,-1.7185395,-0.017727459,0.085989244,0.0047343015,-0.0031965922,-5.6006276E-4,0.042347442,-0.024540568,9.803059,0,0,0,0,0,0,0,0,0,0,0,0,0,0,0,0,0,0,0,0,0
375,-1.7212383,-0.017342307,0.0841902,0.0047343015,-0.0042618564,-0.0016253272,0.03875614,-0.014963761,9.779117,0,0,0,0,0,0,0,0,0,0,0,0,0,0,0,0,0,0,0,0,0
376,-1.7237738,-0.017021108,0.082422435,0.0026037726,-0.00745765,-5.6006276E-4,0.041150343,0.012569559,9.801862,0,0,0,0,0,0,0,0,0,0,0,0,0,0,0,0,0,0,0,0,0
377,-1.7259855,-0.017157624,0.07991249,0.003669037,-0.0031965922,-0.0016253272,0.112976395,0.013766659,9.7719345,0,0,0,0,0,0,0,0,0,0,0,0,0,0,0,0,0,0,0,0,0
378,-1.7284307,-0.016778924,0.07802402,8.1545993E-4,4.993427E-4,0.0013981595,0.14170681,-0.017357962,9.764751,0,0,0,0,0,0,0,0,0,0,0,0,0,0,0,0,0,0,0,0,0
379,-1.7309301,-0.016403064,0.07634788,-2.4980452E-4,0.0015646071,-0.0017976337,0.056712653,-0.019752163,9.80665,0,0,0,0,0,0,0,0,0,0,0,0,0,0,0,0,0,0,0,0,0
380,-1.7331865,-0.016173977,0.074839555,8.1545993E-4,0.0015646071,-7.323693E-4,-0.009127894,0.048482586,9.797073,0,0,0,0,0,0,0,0,0,0,0,0,0,0,0,0,0,0,0,0,0
381,-1.7356055,-0.01582731,0.07331256,8.1545993E-4,-5.659217E-4,3.3289514E-4,0.014814123,-0.011372458,9.809045,0,0,0,0,0,0,0,0,0,0,0,0,0,0,0,0,0,0,0,0,0
382,-1.7379711,-0.015435917,0.071431845,8.1545993E-4,-0.0026964506,-0.0017976337,0.097414084,-0.022146367,9.781511,0,0,0,0,0,0,0,0,0,0,0,0,0,0,0,0,0,0,0,0,0
383,-1.7400609,-0.015165104,0.069752865,-0.0013150689,-5.659217E-4,3.3289514E-4,0.1225532,0.018555064,9.78989,0,0,0,0,0,0,0,0,0,0,0,0,0,0,0,0,0,0,0,0,0
384,-1.7421495,-0.014904635,0.06820268,-2.4980452E-4,-5.659217E-4,3.3289514E-4,0.07586627,0.020949265,9.781511,0,0,0,0,0,0,0,0,0,0,0,0,0,0,0,0,0,0,0,0,0
385,-1.7443973,-0.014583395,0.066823095,-0.0023803334,-5.659217E-4,-7.323693E-4,0.007631518,-0.011372458,9.825804,0,0,0,0,0,0,0,0,0,0,0,0,0,0,0,0,0,0,0,0,0
386,-1.7467394,-0.014407356,0.06539405,-0.0013150689,0.0015646071,-0.0017976337,0.007631518,-0.0017956513,9.800665,0,0,0,0,0,0,0,0,0,0,0,0,0,0,0,0,0,0,0,0,0
387,-1.7486748,-0.014169453,0.063923486,0.0029459887,4.993427E-4,3.3289514E-4,0.079457566,0.024540568,9.768343,0,0,0,0,0,0,0,0,0,0,0,0,0,0,0,0,0,0,0,0,0
388,-1.7506709,-0.013870196,0.062434148,-3.3289514E-5,-0.001581385,0.0012815131,0.10339958,-0.0077811554,9.80665,0,0,0,0,0,0,0,0,0,0,0,0,0,0,0,0,0,0,0,0,0
389,-1.7527306,-0.013530494,0.06100376,0.0010319749,5.491438E-4,0.0012815131,0.08903438,-0.030526072,9.799467,0,0,0,0,0,0,0,0,0,0,0,0,0,0,0,0,0,0,0,0,0
390,-1.7547611,-0.013236428,0.059505798,-3.3289514E-5,-0.001581385,2.1624868E-4,0.033967737,-0.010175358,9.775525,0,0,0,0,0,0,0,0,0,0,0,0,0,0,0,0,0,0,0,0,0
391,-1.7566456,-0.012999965,0.058277894,0.0010319749,0.0016144082,0.0012815131,0.018405426,0.013766659,9.740809,0,0,0,0,0,0,0,0,0,0,0,0,0,0,0,0,0,0,0,0,0
392,-1.7584933,-0.012748527,0.057006232,0.0010319749,-0.001581385,2.1624868E-4,0.05192425,0.004189853,9.787497,0,0,0,0,0,0,0,0,0,0,0,0,0,0,0,0,0,0,0,0,0
393,-1.7604027,-0.012433665,0.05570384,0.0010319749,5.491438E-4,-0.0019142802,0.079457566,-0.02932897,9.793482,0,0,0,0,0,0,0,0,0,0,0,0,0,0,0,0,0,0,0,0,0
394,-1.7621313,-0.012191111,0.054393016,-3.3289514E-5,5.491438E-4,0.0012815131,0.096216984,0.002992752,9.7803135,0,0,0,0,0,0,0,0,0,0,0,0,0,0,0,0,0,0,0,0,0
395,-1.7639914,-0.012112776,0.05338024,0.0010319749,0.0016144082,-8.490158E-4,0.06628946,0.010175358,9.799467,0,0,0,0,0,0,0,0,0,0,0,0,0,0,0,0,0,0,0,0,0
396,-1.7657363,-0.011884002,0.05230436,-0.0021638183,0.0016144082,0.0012815131,0.004040215,0.006584055,9.767146,0,0,0,0,0,0,0,0,0,0,0,0,0,0,0,0,0,0,0,0,0
397,-1.767482,-0.0116206,0.051178962,0.0010319749,-5.1612064E-4,-8.490158E-4,0.03875614,-0.012569559,9.773131,0,0,0,0,0,0,0,0,0,0,0,0,0,0,0,0,0,0,0,0,0
398,-1.7690097,-0.0114260325,0.049959138,-3.3289514E-5,-0.001581385,2.1624868E-4,0.096216984,0.018555064,9.805453,0,0,0,0,0,0,0,0,0,0,0,0,0,0,0,0,0,0,0,0,0
399,-1.7708876,-0.011283479,0.048888475,0.001081776,6.4901233E-4,0.0013148027,0.07586627,-0.03172317,9.792285,0,0,0,0,0,0,0,0,0,0,0,0,0,0,0,0,0,0,0,0,0
400,-1.7724049,-0.011083497,0.047780126,0.0021470406,6.4901233E-4,0.0013148027,0.063895255,0.012569559,9.7863,0,0,0,0,0,0,0,0,0,0,0,0,0,0,0,0,0,0,0,0,0
401,-1.7738601,-0.010921993,0.0467573,-0.0021140173,0.0017142767,2.495382E-4,0.032770637,0.02932897,9.749189,0,0,0,0,0,0,0,0,0,0,0,0,0,0,0,0,0,0,0,0,0
402,-1.7755367,-0.010658327,0.045843236,1.6511598E-5,-0.0014815165,2.495382E-4,-0.010324995,-0.022146367,9.793482,0,0,0,0,0,0,0,0,0,0,0,0,0,0,0,0,0,0,0,0,0
403,-1.7770796,-0.010419509,0.044835065,1.6511598E-5,-4.1625206E-4,-0.0018809907,0.044741645,-0.012569559,9.800665,0,0,0,0,0,0,0,0,0,0,0,0,0,0,0,0,0,0,0,0,0
404,-1.778486,-0.010228195,0.043672275,0.001081776,-4.1625206E-4,2.495382E-4,0.10339958,0.006584055,9.800665,0,0,0,0,0,0,0,0,0,0,0,0,0,0,0,0,0,0,0,0,0
405,-1.7799689,-0.009985693,0.042663295,0.0021470406,0.0017142767,2.495382E-4,0.06628946,-0.018555064,9.781511,0,0,0,0,0,0,0,0,0,0,0,0,0,0,0,0,0,0,0,0,0
406,-1.7813547,-0.009792105,0.041703746,-0.0010487528,-4.1625206E-4,0.0013148027,0.05192425,0.002992752,9.770737,0,0,0,0,0,0,0,0,0,0,0,0,0,0,0,0,0,0,0,0,0
407,-1.7825881,-0.009666081,0.040753614,-0.0010487528,0.0017142767,0.002380067,0.056712653,0.034117375,9.773131,0,0,0,0,0,0,0,0,0,0,0,0,0,0,0,0,0,0,0,0,0
408,-1.7841053,-0.009151078,0.039993264,0.001081776,-4.1625206E-4,-8.1572623E-4,0.014814123,-0.022146367,9.801862,0,0,0,0,0,0,0,0,0,0,0,0,0,0,0,0,0,0,0,0,0
409,-1.785486,-0.008898566,0.038968157,-0.0021140173,6.4901233E-4,2.495382E-4,0.11058219,-0.034117375,9.818622,0,0,0,0,0,0,0,0,0,0,0,0,0,0,0,0,0,0,0,0,0
410,-1.7866768,-0.008751272,0.038011167,-8.9881686E-4,-7.8243675E-4,1.6511598E-5,0.08664017,0.014963761,9.755175,0,0,0,0,0,0,0,0,0,0,0,0,0,0,0,0,0,0,0,0,0
411,-1.787775,-0.008648336,0.037091188,-8.9881686E-4,0.0013480921,1.6511598E-5,0.07826047,0.035314474,9.797073,0,0,0,0,0,0,0,0,0,0,0,0,0,0,0,0,0,0,0,0,0
412,-1.7891533,-0.008432593,0.03634356,0.0012317119,0.0024133567,1.6511598E-5,0.0028431145,-0.020949265,9.794679,0,0,0,0,0,0,0,0,0,0,0,0,0,0,0,0,0,0,0,0,0
413,-1.7901523,-0.00832367,0.035558615,1.6644757E-4,2.828277E-4,-0.0021140173,0.047135845,0.020949265,9.774328,0,0,0,0,0,0,0,0,0,0,0,0,0,0,0,0,0,0,0,0,0
414,-1.7913218,-0.008165795,0.034726147,0.0012317119,0.0013480921,1.6511598E-5,0.059106853,0.004189853,9.745598,0,0,0,0,0,0,0,0,0,0,0,0,0,0,0,0,0,0,0,0,0
415,-1.7925957,-0.007937784,0.03389155,1.6644757E-4,-7.8243675E-4,1.6511598E-5,0.06868366,-0.03172317,9.80665,0,0,0,0,0,0,0,0,0,0,0,0,0,0,0,0,0,0,0,0,0
416,-1.7936642,-0.007797363,0.033029456,0.0022969765,0.0013480921,-0.0010487528,0.09023148,0.008978256,9.793482,0,0,0,0,0,0,0,0,0,0,0,0,0,0,0,0,0,0,0,0,0
417,-1.7946048,-0.007890088,0.03255112,1.6644757E-4,0.0024133567,1.6511598E-5,0.06628946,0.04249708,9.805453,0,0,0,0,0,0,0,0,0,0,0,0,0,0,0,0,0,0,0,0,0
418,-1.795732,-0.0077359565,0.0318478,0.0022969765,-7.8243675E-4,1.6511598E-5,0.02558803,0.0017956513,9.785102,0,0,0,0,0,0,0,0,0,0,0,0,0,0,0,0,0,0,0,0,0
419,-1.7968329,-0.007557977,0.031058118,0.0012317119,-7.8243675E-4,-0.0010487528,0.07466917,-0.011372458,9.77792,0,0,0,0,0,0,0,0,0,0,0,0,0,0,0,0,0,0,0,0,0
420,-1.7977697,-0.0074472423,0.030242486,0.0018975022,-2.1651499E-4,1.6644757E-4,0.09501988,0.019752163,9.7719345,0,0,0,0,0,0,0,0,0,0,0,0,0,0,0,0,0,0,0,0,0
421,-1.7988567,-0.0072799246,0.029550977,8.322378E-4,-0.0012817794,1.6644757E-4,0.042347442,-0.008978256,9.773131,0,0,0,0,0,0,0,0,0,0,0,0,0,0,0,0,0,0,0,0,0
422,-1.7998658,-0.0072627007,0.029115472,8.322378E-4,8.487494E-4,1.6644757E-4,0.047135845,0.008978256,9.809045,0,0,0,0,0,0,0,0,0,0,0,0,0,0,0,0,0,0,0,0,0
423,-1.8008014,-0.007150486,0.028424563,-0.0023635554,-0.0012817794,0.0012317119,0.05312135,0.01616086,9.782708,0,0,0,0,0,0,0,0,0,0,0,0,0,0,0,0,0,0,0,0,0
424,-1.8018116,-0.0069890763,0.027739845,-2.330266E-4,-0.0012817794,1.6644757E-4,0.056712653,-0.008978256,9.758766,0,0,0,0,0,0,0,0,0,0,0,0,0,0,0,0,0,0,0,0,0
425,-1.8028027,-0.0068529695,0.027147384,8.322378E-4,8.487494E-4,-8.9881686E-4,0.018405426,0.0017956513,9.773131,0,0,0,0,0,0,0,0,0,0,0,0,0,0,0,0,0,0,0,0,0
426,-1.8036236,-0.0066832826,0.026471023,8.322378E-4,-0.0012817794,1.6644757E-4,0.05192425,5.985504E-4,9.821015,0,0,0,0,0,0,0,0,0,0,0,0,0,0,0,0,0,0,0,0,0
427,-1.80463,-0.006509181,0.025845109,8.322378E-4,-2.1651499E-4,0.0012317119,0.047135845,-0.019752163,9.76954,0,0,0,0,0,0,0,0,0,0,0,0,0,0,0,0,0,0,0,0,0
428,-1.8054862,-0.006399795,0.025207398,-2.330266E-4,-0.0012817794,1.6644757E-4,0.059106853,0.010175358,9.785102,0,0,0,0,0,0,0,0,0,0,0,0,0,0,0,0,0,0,0,0,0
429,-1.8063811,-0.006258331,0.0245652,-0.001298291,-0.0012817794,1.6644757E-4,0.06748656,-0.006584055,9.776723,0,0,0,0,0,0,0,0,0,0,0,0,0,0,0,0,0,0,0,0,0
430,-1.807314,-0.0061124046,0.024011921,8.322378E-4,8.487494E-4,1.6644757E-4,0.030376434,-0.010175358,9.803059,0,0,0,0,0,0,0,0,0,0,0,0,0,0,0,0,0,0,0,0,0
431,-1.8081646,-0.005695761,0.023119265,8.487494E-4,-8.6552737E-4,1.3315806E-4,0.05551555,-5.985504E-4,9.773131,0,0,0,0,0,0,0,0,0,0,0,0,0,0,0,0,0,0,0,0,0
432,-1.8089854,-0.0055904235,0.022557935,-2.1651499E-4,1.9973709E-4,1.3315806E-4,0.03875614,0.004189853,9.776723,0,0,0,0,0,0,0,0,0,0,0,0,0,0,0,0,0,0,0,0,0
433,-1.8097394,-0.0055018216,0.021966618,-2.1651499E-4,-0.0019307918,-9.321064E-4,0.06868366,0.011372458,9.800665,0,0,0,0,0,0,0,0,0,0,0,0,0,0,0,0,0,0,0,0,0
434,-1.8104978,-0.005400371,0.021371825,-2.1651499E-4,0.0012650015,1.3315806E-4,0.07586627,0.004189853,9.759963,0,0,0,0,0,0,0,0,0,0,0,0,0,0,0,0,0,0,0,0,0
435,-1.8111405,-0.005264941,0.02083821,-2.1651499E-4,0.0012650015,0.0022636869,0.07107786,0.004189853,9.753978,0,0,0,0,0,0,0,0,0,0,0,0,0,0,0,0,0,0,0,0,0
436,-1.8119005,-0.005163308,0.020303244,8.487494E-4,1.9973709E-4,1.3315806E-4,0.057909753,-0.006584055,9.792285,0,0,0,0,0,0,0,0,0,0,0,0,0,0,0,0,0,0,0,0,0
437,-1.8127093,-0.005034379,0.019793613,8.487494E-4,1.9973709E-4,1.3315806E-4,0.050727148,-0.012569559,9.7958765,0,0,0,0,0,0,0,0,0,0,0,0,0,0,0,0,0,0,0,0,0
438,-1.8134775,-0.004925155,0.019309022,-2.1651499E-4,1.9973709E-4,-9.321064E-4,0.043544542,-0.004189853,9.816227,0,0,0,0,0,0,0,0,0,0,0,0,0,0,0,0,0,0,0,0,0
439,-1.8188581,-0.0028987243,0.020039717,0.0040445426,0.03215767,-0.16817862,-0.51789576,-0.8972271,9.264363,0,0,0,0,0,0,0,0,0,0,0,0,0,0,0,0,0,0,0,0,0
440,-1.7752339,-0.002953752,0.029223846,-0.0012817794,0.033222936,-0.10213222,0.31648353,0.25797522,9.779117,0,0,0,0,0,0,0,0,0,0,0,0,0,0,0,0,0,0,0,0,0
441,-1.7763486,-0.0031048856,0.028586818,-0.019391274,-0.07756457,0.00545948,-0.14320318,-0.06404489,10.38485,0,0,0,0,0,0,0,0,0,0,0,0,0,0,0,0,0,0,0,0,0
442,-1.7791756,-0.0024079601,0.028154192,-0.21753472,-0.061587997,-0.28535637,-0.06778584,-0.30945057,9.745598,0,0,0,0,0,0,0,0,0,0,0,0,0,0,0,0,0,0,0,0,0
443,-1.7824428,-0.0016335705,0.028158063,-0.24416633,-0.1840934,-0.36631647,-0.3012205,-0.38606504,10.623073,0,0,0,0,0,0,0,0,0,0,0,0,0,0,0,0,0,0,0,0,0
444,-1.7204139,0.02482238,-0.046550546,-0.25055793,-0.5729149,-0.65180737,-0.28805238,-0.86610246,10.505757,0,0,0,0,0,0,0,0,0,0,0,0,0,0,0,0,0,0,0,0,0
445,-1.7289125,0.02843835,-0.04604178,-0.3645412,-0.7763804,-1.2813786,0.29134443,-2.878429,13.797785,0,0,0,0,0,0,0,0,0,0,0,0,0,0,0,0,0,0,0,0,0
446,-1.7234436,0.024137557,-0.047007278,-0.27718952,-2.2634895,-0.976713,1.1185411,2.6497827,9.700109,0,0,0,0,0,0,0,0,0,0,0,0,0,0,0,0,0,0,0,0,0
447,-1.7163545,0.019885166,-0.048953734,-0.18877257,-2.2954476,-0.16711202,1.6775872,2.224812,11.542446,0,0,0,0,0,0,0,0,0,0,0,0,0,0,0,0,0,0,0,0,0
448,-1.7122722,0.017474938,-0.05320399,-0.05135347,-3.844342,0.5657899,2.5514708,0.99658644,9.534908,0,0,0,0,0,0,0,0,0,0,0,0,0,0,0,0,0,0,0,0,0
449,-1.7962823,0.050329145,-0.57566863,0.21496263,-3.102918,1.0835084,2.7058969,-0.47465047,3.4009635,0,0,0,0,0,0,0,0,0,0,0,0,0,0,0,0,0,0,0,0,0
450,-1.798757,0.055526517,-0.57707596,0.1233499,-0.7508141,0.33995384,4.180725,-2.2260091,5.544971,0,0,0,0,0,0,0,0,0,0,0,0,0,0,0,0,0,0,0,0,0
451,-1.8015432,0.057580158,-0.5730346,-0.07052823,0.077961646,-0.05312873,3.6420298,-1.2659341,8.232463,0,0,0,0,0,0,0,0,0,0,0,0,0,0,0,0,0,0,0,0,0
452,-1.8000429,0.057256125,-0.57007724,-0.11207354,0.2761008,-0.066977166,4.025102,-0.40402153,8.889671,0,0,0,0,0,0,0,0,0,0,0,0,0,0,0,0,0,0,0,0,0
453,-1.8051677,0.058899328,-0.54835695,0.08819617,0.0076541915,0.033157688,3.71625,-1.572392,8.190564,0,0,0,0,0,0,0,0,0,0,0,0,0,0,0,0,0,0,0,0,0
454,-1.8035915,0.058481432,-0.5439732,-0.038570296,0.102462724,-0.10319616,3.6791399,-0.43275195,10.770316,0,0,0,0,0,0,0,0,0,0,0,0,0,0,0,0,0,0,0,0,0
455,-1.8046322,0.060350332,-0.5417505,0.042389803,-0.32151252,0.10239988,4.487183,-1.6645688,8.368932,0,0,0,0,0,0,0,0,0,0,0,0,0,0,0,0,0,0,0,0,0
456,-1.801769,0.059610765,-0.53945786,0.3662302,0.12376802,-0.28216058,4.762516,-0.26874915,10.463859,0,0,0,0,0,0,0,0,0,0,0,0,0,0,0,0,0,0,0,0,0
457,-1.8012761,0.06040371,-0.5373618,0.8711655,-0.18515867,-0.4557987,4.9480667,-1.1701661,10.657789,0,0,0,0,0,0,0,0,0,0,0,0,0,0,0,0,0,0,0,0,0
458,-1.8098385,-0.10128976,-0.5653954,1.3292292,-0.024303742,-0.8147928,5.033061,-0.38965634,9.149442,0,0,0,0,0,0,0,0,0,0,0,0,0,0,0,0,0,0,0,0,0
459,-1.8073701,-0.098723754,-0.5622139,1.1395924,0.42416167,-1.0970801,4.1591773,-0.28431144,9.66659,0,0,0,0,0,0,0,0,0,0,0,0,0,0,0,0,0,0,0,0,0
460,-1.8054955,-0.09666742,-0.55917954,1.0405228,0.6446714,-1.185497,4.1867104,0.08439561,9.715671,0,0,0,0,0,0,0,0,0,0,0,0,0,0,0,0,0,0,0,0,0
461,-1.8012698,-0.09680018,-0.5544919,0.9712807,1.0441456,-1.4422258,3.2996588,1.0720038,9.799467,0,0,0,0,0,0,0,0,0,0,0,0,0,0,0,0,0,0,0,0,0
462,-1.6654059,-0.3001065,-0.34805715,0.9819333,1.5288409,-1.5689923,1.9397523,1.5197195,10.040085,0,0,0,0,0,0,0,0,0,0,0,0,0,0,0,0,0,0,0,0,0
463,-1.6595503,-0.2984191,-0.34300363,1.0927209,1.9570771,-1.4656616,0.9293992,2.1386206,9.714474,0,0,0,0,0,0,0,0,0,0,0,0,0,0,0,0,0,0,0,0,0
464,-1.6518949,-0.29843536,-0.33793765,1.0192176,1.8207233,-1.1556697,0.8025065,2.7635074,8.921992,0,0,0,0,0,0,0,0,0,0,0,0,0,0,0,0,0,0,0,0,0
465,-1.6468012,-0.29782146,-0.33422127,0.6921814,1.4638598,-1.2366298,1.484854,2.6880898,9.685743,0,0,0,0,0,0,0,0,0,0,0,0,0,0,0,0,0,0,0,0,0
466,-1.6385396,-0.29832408,-0.32643306,0.8562321,1.5075356,-1.100276,-0.5669769,3.4398694,10.262746,0,0,0,0,0,0,0,0,0,0,0,0,0,0,0,0,0,0,0,0,0
467,-1.5163919,-0.44865894,-0.086775586,1.0831335,1.3338975,-0.7487387,-0.07855974,3.6541502,8.028955,0,0,0,0,0,0,0,0,0,0,0,0,0,0,0,0,0,0,0,0,0
468,-1.5108774,-0.44923005,-0.08694189,0.5771328,1.062255,-0.6667133,0.7318775,3.9857473,7.6734166,0,0,0,0,0,0,0,0,0,0,0,0,0,0,0,0,0,0,0,0,0
469,-1.507229,-0.44793198,-0.08632805,0.2607493,0.5189702,-0.5804269,0.5056255,3.6373909,8.979453,0,0,0,0,0,0,0,0,0,0,0,0,0,0,0,0,0,0,0,0,0
470,-1.5030898,-0.4481132,-0.08626784,0.533457,-0.07757788,-0.5186416,0.7294833,4.3101616,8.735245,0,0,0,0,0,0,0,0,0,0,0,0,0,0,0,0,0,0,0,0,0
471,-1.4419107,-0.53810066,-0.1286697,0.698573,-0.87439567,-0.49094468,1.3052888,4.1796775,7.8529816,0,0,0,0,0,0,0,0,0,0,0,0,0,0,0,0,0,0,0,0,0
472,-1.436082,-0.538861,-0.12775022,0.57606757,-1.1865182,-0.56231743,0.5259762,4.136582,6.3458314,0,0,0,0,0,0,0,0,0,0,0,0,0,0,0,0,0,0,0,0,0
473,-1.4280534,-0.53902125,-0.123290256,0.17339762,-0.032836776,-0.6283638,-0.64119714,4.2024226,7.255628,0,0,0,0,0,0,0,0,0,0,0,0,0,0,0,0,0,0,0,0,0
474,-1.4234663,-0.5390508,-0.122288026,-0.03539421,0.40392163,-0.55805635,0.607379,4.9853263,8.285135,0,0,0,0,0,0,0,0,0,0,0,0,0,0,0,0,0,0,0,0,0
475,-1.336418,-0.5112639,-0.30141222,-0.30916718,-1.689323,-0.5090542,1.0838252,4.493318,9.882068,0,0,0,0,0,0,0,0,0,0,0,0,0,0,0,0,0,0,0,0,0
476,-1.3351288,-0.50865364,-0.29412198,-0.08225998,-1.7606927,-0.72104394,-0.62204355,3.9486372,9.844957,0,0,0,0,0,0,0,0,0,0,0,0,0,0,0,0,0,0,0,0,0
477,-1.332064,-0.508566,-0.28942585,0.8466506,-1.1151425,-0.59534276,0.49245736,4.5842977,8.292317,0,0,0,0,0,0,0,0,0,0,0,0,0,0,0,0,0,0,0,0,0
478,-1.3233408,-0.5117631,-0.28330544,1.0852698,-0.653883,-0.61238694,-0.106093064,5.048773,6.3925185,0,0,0,0,0,0,0,0,0,0,0,0,0,0,0,0,0,0,0,0,0
479,-1.3163617,-0.51357096,-0.27771357,0.7134925,-0.33856472,-0.48455524,0.026785132,4.9613843,7.2185183,0,0,0,0,0,0,0,0,0,0,0,0,0,0,0,0,0,0,0,0,0
480,-1.2783262,-0.58414125,-0.30538055,0.37793425,-0.5803798,-0.4078562,0.7187094,5.1864395,8.792706,0,0,0,0,0,0,0,0,0,0,0,0,0,0,0,0,0,0,0,0,0
481,-1.2722158,-0.5839284,-0.29922113,0.6122924,-0.63151246,-0.652867,-0.022296004,5.5587378,8.605958,0,0,0,0,0,0,0,0,0,0,0,0,0,0,0,0,0,0,0,0,0
482,-1.2690071,-0.58483875,-0.29637414,0.73692834,-0.20647195,-1.4155964,1.022773,5.9023056,7.813477,0,0,0,0,0,0,0,0,0,0,0,0,0,0,0,0,0,0,0,0,0
483,-1.2616051,-0.58543915,-0.2896086,0.5292018,0.25478753,-1.2930909,-0.32875383,5.5419784,7.8410106,0,0,0,0,0,0,0,0,0,0,0,0,0,0,0,0,0,0,0,0,0
484,-1.2589955,-0.58541137,-0.28635144,-0.18132958,-0.6773188,-0.46857625,0.9557354,4.9972973,7.499837,0,0,0,0,0,0,0,0,0,0,0,0,0,0,0,0,0,0,0,0,0
485,-1.1763103,-0.574501,-0.32664764,-0.46362466,-0.4088722,-0.21504334,-0.1683423,5.3085437,7.40766,0,0,0,0,0,0,0,0,0,0,0,0,0,0,0,0,0,0,0,0,0
486,-1.1675563,-0.5766996,-0.31831902,-0.6116964,-0.32684684,0.058729626,-0.7214029,6.5655,8.013393,0,0,0,0,0,0,0,0,0,0,0,0,0,0,0,0,0,0,0,0,0
487,-1.1624795,-0.57717437,-0.31132808,-0.638328,-0.44296065,0.43476796,0.049530048,6.4840965,9.515755,0,0,0,0,0,0,0,0,0,0,0,0,0,0,0,0,0,0,0,0,0
488,-1.1605802,-0.5765861,-0.30600584,-1.1262192,-1.3473701,0.4571385,0.42661682,5.7574563,9.428367,0,0,0,0,0,0,0,0,0,0,0,0,0,0,0,0,0,0,0,0,0
489,-1.1196824,-0.3860276,-0.52693003,-1.375491,-1.330326,0.54022914,1.330428,5.6389437,6.543353,0,0,0,0,0,0,0,0,0,0,0,0,0,0,0,0,0,0,0,0,0
490,-1.1241608,-0.38644913,-0.5227624,-0.4561678,0.4241646,0.23769405,2.5981576,3.8349125,8.9602995,0,0,0,0,0,0,0,0,0,0,0,0,0,0,0,0,0,0,0,0,0
491,-1.1297903,-0.38357764,-0.5148013,-0.23565806,0.39327192,-0.19906436,1.5231612,3.0340521,12.150574,0,0,0,0,0,0,0,0,0,0,0,0,0,0,0,0,0,0,0,0,0
492,-1.1264186,-0.38461658,-0.5050125,0.16382594,-0.96919566,-0.40679494,0.2721908,4.994903,10.730812,0,0,0,0,0,0,0,0,0,0,0,0,0,0,0,0,0,0,0,0,0
493,-1.1179264,-0.4511636,-0.6189752,0.3864662,-0.9319114,-0.28322425,1.3160627,5.168483,7.9607205,0,0,0,0,0,0,0,0,0,0,0,0,0,0,0,0,0,0,0,0,0
494,-1.1155424,-0.45310968,-0.6112529,0.3417251,-0.28742644,-0.026495524,1.782932,4.720767,7.517793,0,0,0,0,0,0,0,0,0,0,0,0,0,0,0,0,0,0,0,0,0
495,-1.1153384,-0.45365977,-0.60419065,-0.30062935,0.07050239,-0.1287609,1.9684827,4.020463,7.455544,0,0,0,0,0,0,0,0,0,0,0,0,0,0,0,0,0,0,0,0,0
496,-1.1121277,-0.45484507,-0.5955019,-0.9728112,0.01830444,-0.15539251,1.532738,5.109825,8.942344,0,0,0,0,0,0,0,0,0,0,0,0,0,0,0,0,0,0,0,0,0
497,-1.1117451,-0.45428428,-0.5875858,-0.8204784,-0.22564112,0.1226415,1.5135844,3.469797,7.478289,0,0,0,0,0,0,0,0,0,0,0,0,0,0,0,0,0,0,0,0,0
498,-1.0765266,-0.36379865,-0.527638,-0.59677285,0.71818316,-0.13728303,2.2282536,2.653374,8.304289,0,0,0,0,0,0,0,0,0,0,0,0,0,0,0,0,0,0,0,0,0
499,-1.0777355,-0.36299908,-0.5195362,-0.6372529,0.2292268,-0.4376876,1.1329063,3.1106665,9.198523,0,0,0,0,0,0,0,0,0,0,0,0,0,0,0,0,0,0,0,0,0
500,-1.079724,-0.36126477,-0.5124604,-0.5445749,-0.69222695,-0.22250418,1.5363293,2.6402059,9.184157,0,0,0,0,0,0,0,0,0,0,0,0,0,0,0,0,0,0,0,0,0
501,-1.0759399,-0.36214378,-0.50476164,0.3001798,-0.37051708,-0.037148166,1.0670657,3.5990837,8.322245,0,0,0,0,0,0,0,0,0,0,0,0,0,0,0,0,0,0,0,0,0
502,-1.2378849,-0.42618927,-0.54794514,1.0032543,0.08648136,0.7245159,0.9305963,2.321777,8.076839,0,0,0,0,0,0,0,0,0,0,0,0,0,0,0,0,0,0,0,0,0
503,-1.2378916,-0.42591575,-0.54654455,-0.8236742,-0.04135037,0.6542084,3.0327053,2.8856115,5.85502,0,0,0,0,0,0,0,0,0,0,0,0,0,0,0,0,0,0,0,0,0
504,-1.2375646,-0.42306137,-0.5411079,-1.69293,0.5594588,0.29521433,2.7645547,2.9658175,9.809045,0,0,0,0,0,0,0,0,0,0,0,0,0,0,0,0,0,0,0,0,0
505,-1.2389505,-0.4183141,-0.5342606,-0.6308613,0.2686416,0.1343594,2.267758,2.1577742,11.259931,0,0,0,0,0,0,0,0,0,0,0,0,0,0,0,0,0,0,0,0,0
506,-1.2345946,-0.4172718,-0.5279804,0.064756356,-0.054133542,-0.17456728,2.3743,4.1677065,10.605117,0,0,0,0,0,0,0,0,0,0,0,0,0,0,0,0,0,0,0,0,0
507,-1.2075567,-0.40995678,-0.5907969,-0.15362285,-1.1215285,-0.21611258,2.6735752,2.983774,9.099164,0,0,0,0,0,0,0,0,0,0,0,0,0,0,0,0,0,0,0,0,0
508,-1.2071468,-0.40854624,-0.5866879,-0.098229095,-0.38756132,-0.41105598,3.157204,2.9658175,7.78355,0,0,0,0,0,0,0,0,0,0,0,0,0,0,0,0,0,0,0,0,0
509,-1.2013087,-0.40707964,-0.5776415,0.009339972,0.48594302,-0.47709358,1.3531729,3.518878,10.010158,0,0,0,0,0,0,0,0,0,0,0,0,0,0,0,0,0,0,0,0,0
510,-1.1958895,-0.40515202,-0.56846374,0.19150019,-0.062668175,-0.31091234,1.2214918,3.3105824,10.237606,0,0,0,0,0,0,0,0,0,0,0,0,0,0,0,0,0,0,0,0,0
511,-1.1843226,-0.46424818,-0.6244384,0.37046462,-0.50475293,-0.3087818,1.9062334,3.0184898,8.157045,0,0,0,0,0,0,0,0,0,0,0,0,0,0,0,0,0,0,0,0,0
512,-1.180458,-0.46280345,-0.61746776,0.43118468,0.5104441,-0.25019225,2.385074,3.6194344,8.423999,0,0,0,0,0,0,0,0,0,0,0,0,0,0,0,0,0,0,0,0,0
513,-1.1710159,-0.46192726,-0.60682106,0.6602165,0.707518,-0.34287027,0.74384856,3.8959646,8.716091,0,0,0,0,0,0,0,0,0,0,0,0,0,0,0,0,0,0,0,0,0
514,-1.1629435,-0.461578,-0.5975379,0.30974454,0.34745863,0.07897444,1.3124714,4.396353,9.137471,0,0,0,0,0,0,0,0,0,0,0,0,0,0,0,0,0,0,0,0,0
515,-1.1555588,-0.4612123,-0.58879846,-0.031140076,-0.44403285,0.18869668,1.4537294,4.317344,8.9758625,0,0,0,0,0,0,0,0,0,0,0,0,0,0,0,0,0,0,0,0,0
516,-1.1779921,-0.43975267,-0.6493881,0.20108756,-0.11912719,0.3346379,1.6177322,4.24073,9.609129,0,0,0,0,0,0,0,0,0,0,0,0,0,0,0,0,0,0,0,0,0
517,-1.1741136,-0.43836942,-0.64090693,0.62932384,0.1418626,0.3410295,2.0881927,3.6314054,9.109938,0,0,0,0,0,0,0,0,0,0,0,0,0,0,0,0,0,0,0,0,0
518,-1.1705363,-0.43688005,-0.63264054,0.72200185,0.19938688,0.12584607,2.0846014,3.518878,9.001001,0,0,0,0,0,0,0,0,0,0,0,0,0,0,0,0,0,0,0,0,0
519,-1.1645167,-0.43693805,-0.6234418,0.68152183,-0.010470218,0.099214464,1.4740801,4.0360255,8.450335,0,0,0,0,0,0,0,0,0,0,0,0,0,0,0,0,0,0,0,0,0
520,-1.2318848,-0.4906765,-0.6435641,0.58777857,0.042793002,0.17165245,1.8607436,4.184466,8.1079645,0,0,0,0,0,0,0,0,0,0,0,0,0,0,0,0,0,0,0,0,0
521,-1.2317443,-0.48727146,-0.6363631,0.35235512,-0.14469354,0.25048202,3.0135517,3.5751417,10.342952,0,0,0,0,0,0,0,0,0,0,0,0,0,0,0,0,0,0,0,0,0
522,-1.2295008,-0.48600757,-0.6296122,0.5803217,-0.6911742,-0.0904026,2.7262475,4.180875,8.850166,0,0,0,0,0,0,0,0,0,0,0,0,0,0,0,0,0,0,0,0,0
523,-1.2260642,-0.4867286,-0.62401366,0.82426727,-0.26719895,-0.121295266,2.7585692,4.6321816,7.5644803,0,0,0,0,0,0,0,0,0,0,0,0,0,0,0,0,0,0,0,0,0
524,-1.222436,-0.48763126,-0.6178282,1.0000359,0.35811126,-0.19479851,2.5371056,4.8225207,7.7931266,0,0,0,0,0,0,0,0,0,0,0,0,0,0,0,0,0,0,0,0,0
525,-1.2807693,-0.622209,-0.5813882,1.1363897,0.4987262,-0.21184275,1.6105496,5.109825,8.230068,0,0,0,0,0,0,0,0,0,0,0,0,0,0,0,0,0,0,0,0,0
526,-1.2755357,-0.6208363,-0.5745606,0.8977705,-0.09462611,-0.15431847,1.9229928,4.9996915,7.85777,0,0,0,0,0,0,0,0,0,0,0,0,0,0,0,0,0,0,0,0,0
527,-1.2693937,-0.6207457,-0.56783056,0.6346502,-0.61980146,-0.35352293,1.6967409,5.096657,6.992266,0,0,0,0,0,0,0,0,0,0,0,0,0,0,0,0,0,0,0,0,0
528,-1.2560594,-0.62484825,-0.5588201,0.48977423,-0.41314018,-0.32795656,0.7175123,6.6480994,6.0884547,0,0,0,0,0,0,0,0,0,0,0,0,0,0,0,0,0,0,0,0,0
529,-1.2915081,-0.6626657,-0.58068705,0.3651383,0.03000983,0.17058718,0.75103116,6.4661403,7.1407065,0,0,0,0,0,0,0,0,0,0,0,0,0,0,0,0,0,0,0,0,0
530,-1.2878671,-0.66186,-0.57615596,0.19363073,-0.17345567,0.37298742,2.7334301,5.655703,7.393295,0,0,0,0,0,0,0,0,0,0,0,0,0,0,0,0,0,0,0,0,0
531,-1.2864302,-0.6608986,-0.57355386,-0.11103491,-0.37905172,0.30054945,3.2972646,5.385158,6.895301,0,0,0,0,0,0,0,0,0,0,0,0,0,0,0,0,0,0,0,0,0
532,-1.2777901,-0.6608346,-0.5658897,-0.10464332,0.21536584,0.2781789,1.5064018,6.1501055,7.8182654,0,0,0,0,0,0,0,0,0,0,0,0,0,0,0,0,0,0,0,0,0
533,-1.271854,-0.6596153,-0.55880594,0.14569382,0.6382758,0.52532023,1.8236336,5.9358244,8.485051,0,0,0,0,0,0,0,0,0,0,0,0,0,0,0,0,0,0,0,0,0
534,-1.3637886,-0.6394523,-0.5279315,0.11054009,0.46463773,0.6052151,2.7729344,5.7083755,8.696938,0,0,0,0,0,0,0,0,0,0,0,0,0,0,0,0,0,0,0,0,0
535,-1.361829,-0.6369864,-0.5243256,-0.019422168,0.113100454,0.4635349,3.0949545,5.155315,8.541314,0,0,0,0,0,0,0,0,0,0,0,0,0,0,0,0,0,0,0,0,0
536,-1.35883,-0.63463306,-0.51948875,0.029579997,0.16210262,0.27924415,2.5825953,5.2965727,8.89805,0,0,0,0,0,0,0,0,0,0,0,0,0,0,0,0,0,0,0,0,0
537,-1.3553693,-0.6320704,-0.51385456,0.42692363,0.41563556,0.15354295,2.1420624,5.0451818,8.838196,0,0,0,0,0,0,0,0,0,0,0,0,0,0,0,0,0,0,0,0,0
538,-1.4191116,-0.70727736,-0.48020208,0.8722042,0.50831354,0.11945449,0.98207164,5.240309,8.874108,0,0,0,0,0,0,0,0,0,0,0,0,0,0,0,0,0,0,0,0,0
539,-1.408634,-0.70726603,-0.47505236,1.0351896,-0.07651661,0.32824633,1.5052047,5.8185086,6.646304,0,0,0,0,0,0,0,0,0,0,0,0,0,0,0,0,0,0,0,0,0
540,-1.4017421,-0.70974547,-0.47474384,0.36300775,-0.09995243,0.54023397,2.6149173,6.461352,5.282806,0,0,0,0,0,0,0,0,0,0,0,0,0,0,0,0,0,0,0,0,0
541,-1.3963567,-0.7096795,-0.47291574,-0.020487431,-0.35028958,0.4390338,2.6089318,5.952584,6.469133,0,0,0,0,0,0,0,0,0,0,0,0,0,0,0,0,0,0,0,0,0
542,-1.3911904,-0.71071106,-0.47208646,0.073251575,-0.40142465,0.3293132,2.8184242,6.4218473,6.1219735,0,0,0,0,0,0,0,0,0,0,0,0,0,0,0,0,0,0,0,0,0
543,-1.4472982,-0.70420533,-0.56762516,0.09668739,-0.38011938,0.2536794,3.4995747,6.5906386,5.0182467,0,0,0,0,0,0,0,0,0,0,0,0,0,0,0,0,0,0,0,0,0
544,-1.4445975,-0.7055191,-0.56819046,-0.18880348,-0.14043488,0.10454239,3.7593455,6.4936733,5.543774,0,0,0,0,0,0,0,0,0,0,0,0,0,0,0,0,0,0,0,0,0
545,-1.4408916,-0.7056281,-0.5662382,-0.39546478,-0.3790541,-0.09359679,3.5989342,6.8360443,7.074866,0,0,0,0,0,0,0,0,0,0,0,0,0,0,0,0,0,0,0,0,0
546,-1.4394089,-0.70383173,-0.5639022,-0.15045395,-0.47386265,-0.30132335,3.8503253,6.271013,7.9822683,0,0,0,0,0,0,0,0,0,0,0,0,0,0,0,0,0,0,0,0,0
547,-1.387808,-0.7740647,-0.5550638,0.5781869,0.07474854,-0.5591174,2.6807578,7.0227923,7.7308774,0,0,0,0,0,0,0,0,0,0,0,0,0,0,0,0,0,0,0,0,0
548,-1.3814225,-0.7731121,-0.550275,1.0916444,1.0238992,-0.626229,2.4150014,6.9126587,7.395689,0,0,0,0,0,0,0,0,0,0,0,0,0,0,0,0,0,0,0,0,0
549,-1.3738806,-0.77245474,-0.54491067,1.0959054,1.3626533,-0.71571124,2.1396682,7.0227923,7.383718,0,0,0,0,0,0,0,0,0,0,0,0,0,0,0,0,0,0,0,0,0
550,-1.3628166,-0.77408314,-0.53853583,0.91161466,0.7682357,-0.65286064,1.5004163,7.6764092,6.5206084,0,0,0,0,0,0,0,0,0,0,0,0,0,0,0,0,0,0,0,0,0
551,-1.3521329,-0.7765176,-0.531839,0.37365615,0.12162017,-0.3599129,1.2586019,7.7733746,6.093243,0,0,0,0,0,0,0,0,0,0,0,0,0,0,0,0,0,0,0,0,0
552,-1.3261408,-0.8285754,-0.510772,-0.20691296,-0.42592573,-0.34606448,2.6699839,6.154894,5.9962783,0,0,0,0,0,0,0,0,0,0,0,0,0,0,0,0,0,0,0,0,0
553,-1.3215814,-0.82761455,-0.5058483,-0.4274227,-0.36307514,-0.81691134,1.8260278,6.915053,6.739678,0,0,0,0,0,0,0,0,0,0,0,0,0,0,0,0,0,0,0,0,0
554,-1.3133465,-0.82690924,-0.4984297,-0.13660552,-0.2629403,-0.60066265,0.9796774,7.385514,7.217321,0,0,0,0,0,0,0,0,0,0,0,0,0,0,0,0,0,0,0,0,0
555,-1.3108226,-0.8256278,-0.4942777,0.14036323,-0.31513825,-0.41850245,2.1624131,7.2083426,7.2245035,0,0,0,0,0,0,0,0,0,0,0,0,0,0,0,0,0,0,0,0,0
556,-1.2390106,-0.87159956,-0.5474623,0.089230545,-0.86801046,-0.5250289,1.7769465,7.2382703,6.1040173,0,0,0,0,0,0,0,0,0,0,0,0,0,0,0,0,0,0,0,0,0
557,-1.2335202,-0.87014896,-0.53957784,-0.12701814,-0.9862548,-0.47176567,1.0538976,7.095815,6.823475,0,0,0,0,0,0,0,0,0,0,0,0,0,0,0,0,0,0,0,0,0
558,-1.2267369,-0.86773825,-0.5299322,-0.0801465,-0.8733368,-0.33328128,0.4098574,6.6624646,7.145495,0,0,0,0,0,0,0,0,0,0,0,0,0,0,0,0,0,0,0,0,0
559,-1.2195826,-0.8672924,-0.5222398,0.0732601,-0.9010289,-0.15325479,0.87313545,6.8013287,5.9663506,0,0,0,0,0,0,0,0,0,0,0,0,0,0,0,0,0,0,0,0,0
560,-1.2155684,-0.8691871,-0.5199028,0.05195481,-0.82646036,0.04594965,1.9517233,7.0994067,4.547786,0,0,0,0,0,0,0,0,0,0,0,0,0,0,0,0,0,0,0,0,0
561,-1.2275001,-0.8637745,-0.6333355,-0.31662667,-0.50688106,0.121583425,2.7609634,6.9437833,5.321113,0,0,0,0,0,0,0,0,0,0,0,0,0,0,0,0,0,0,0,0,0
562,-1.2273276,-0.86188745,-0.6290847,-0.38906467,-0.32045978,-0.044597827,2.7477953,6.5152216,6.1399302,0,0,0,0,0,0,0,0,0,0,0,0,0,0,0,0,0,0,0,0,0
563,-1.2242929,-0.8601431,-0.6229287,-0.19731706,-0.055208925,-0.2768255,2.2665608,7.0251865,6.8103065,0,0,0,0,0,0,0,0,0,0,0,0,0,0,0,0,0,0,0,0,0
564,-1.2185305,-0.8592303,-0.6157252,0.10734856,0.12482076,-0.30239183,1.7757494,7.24665,6.602011,0,0,0,0,0,0,0,0,0,0,0,0,0,0,0,0,0,0,0,0,0
565,-1.1829121,-0.8932017,-0.56279874,0.05408534,0.17275766,-0.28747812,1.8056769,6.63972,6.8091097,0,0,0,0,0,0,0,0,0,0,0,0,0,0,0,0,0,0,0,0,0
566,-1.1840134,-0.88890374,-0.55833936,-0.12700962,-0.27571866,-0.5186405,2.5275288,6.1106014,7.1490865,0,0,0,0,0,0,0,0,0,0,0,0,0,0,0,0,0,0,0,0,0
567,-1.1841048,-0.887425,-0.5572721,-0.26016766,-0.6368433,-0.9319631,2.9070098,6.3751607,5.258864,0,0,0,0,0,0,0,0,0,0,0,0,0,0,0,0,0,0,0,0,0
568,-1.1700312,-0.88538235,-0.54661244,-0.1632286,0.85878795,-1.02038,0.17881694,7.361572,7.3609734,0,0,0,0,0,0,0,0,0,0,0,0,0,0,0,0,0,0,0,0,0
569,-1.1126107,-0.9919283,-0.2993168,0.68791765,1.5149908,-0.5335542,-0.20186113,6.8132997,8.945934,0,0,0,0,0,0,0,0,0,0,0,0,0,0,0,0,0,0,0,0,0
570,-1.1047297,-0.9877177,-0.29526538,1.0543686,0.8438743,-0.25658545,0.65047467,6.6804214,6.7025676,0,0,0,0,0,0,0,0,0,0,0,0,0,0,0,0,0,0,0,0,0
571,-1.101833,-0.98377866,-0.293732,0.3480983,0.14825659,-0.20758328,1.4070424,6.558317,6.3338604,0,0,0,0,0,0,0,0,0,0,0,0,0,0,0,0,0,0,0,0,0
572,-1.0981793,-0.97982013,-0.29120564,0.23837608,0.0055111456,-0.37909085,1.1185411,6.7187285,6.6187706,0,0,0,0,0,0,0,0,0,0,0,0,0,0,0,0,0,0,0,0,0
573,-1.0913677,-0.9785186,-0.28827593,0.47060373,0.34319997,-0.44513726,0.8096891,7.293337,5.555745,0,0,0,0,0,0,0,0,0,0,0,0,0,0,0,0,0,0,0,0,0
574,-0.99559,-1.0630783,-0.1294843,0.62932813,0.9258996,-0.5111836,-0.06539164,7.463325,5.0960584,0,0,0,0,0,0,0,0,0,0,0,0,0,0,0,0,0,0,0,0,0
575,-0.9807875,-1.0601866,-0.12287951,0.5632817,1.2561315,-0.32050133,-1.2002432,7.879916,5.898116,0,0,0,0,0,0,0,0,0,0,0,0,0,0,0,0,0,0,0,0,0
576,-0.96648777,-1.0584079,-0.11615566,0.0828307,0.4880666,0.01932443,-1.1463737,7.923012,5.2923827,0,0,0,0,0,0,0,0,0,0,0,0,0,0,0,0,0,0,0,0,0
577,-0.9544401,-1.0568612,-0.1106417,-0.8077304,-0.3652102,0.2590089,-0.8267478,7.7769656,5.1379566,0,0,0,0,0,0,0,0,0,0,0,0,0,0,0,0,0,0,0,0,0
578,-0.9812775,-0.92725855,-0.21069737,-0.9387579,-0.56974095,0.2771184,0.6947674,7.873931,5.439626,0,0,0,0,0,0,0,0,0,0,0,0,0,0,0,0,0,0,0,0,0
579,-0.97626334,-0.9269517,-0.20686649,-0.5850901,0.0481124,0.005475992,0.120159,8.102577,6.2728086,0,0,0,0,0,0,0,0,0,0,0,0,0,0,0,0,0,0,0,0,0
580,-0.9729032,-0.92338437,-0.2012965,0.096679136,0.5445256,0.029977074,-0.6124667,7.949348,8.535329,0,0,0,0,0,0,0,0,0,0,0,0,0,0,0,0,0,0,0,0,0
581,-0.9670115,-0.92123836,-0.19544214,0.95315176,0.41882443,0.14928669,-0.7130232,8.304887,7.777564,0,0,0,0,0,0,0,0,0,0,0,0,0,0,0,0,0,0,0,0,0
582,-0.95664567,-0.9220269,-0.1885554,1.2546216,0.28566638,0.37725326,-0.9057564,8.733449,6.0381765,0,0,0,0,0,0,0,0,0,0,0,0,0,0,0,0,0,0,0,0,0
583,-1.1649891,-1.076759,-0.31845957,1.3451691,0.54346037,0.72666,0.09142858,8.891466,4.97156,0,0,0,0,0,0,0,0,0,0,0,0,0,0,0,0,0,0,0,0,0
584,-1.1656456,-1.0758965,-0.32049578,0.94143385,0.24731685,0.63930833,2.0462942,8.421006,4.578911,0,0,0,0,0,0,0,0,0,0,0,0,0,0,0,0,0,0,0,0,0
585,-1.1697888,-1.0739645,-0.32402518,0.16379079,-0.5644146,0.10134979,2.4269724,7.578247,4.474763,0,0,0,0,0,0,0,0,0,0,0,0,0,0,0,0,0,0,0,0,0
586,-1.1697565,-1.0747982,-0.32598692,-0.07695896,-0.7178127,-0.6049205,1.733851,8.647258,3.8606503,0,0,0,0,0,0,0,0,0,0,0,0,0,0,0,0,0,0,0,0,0
587,-0.99269235,-1.0714288,-0.21296386,-0.17815909,-0.3076859,-0.56763625,-0.6914754,8.58022,5.1247888,0,0,0,0,0,0,0,0,0,0,0,0,0,0,0,0,0,0,0,0,0
588,-0.98860407,-1.0695074,-0.20864291,-0.09400319,-0.18837631,-0.17988002,-0.0163105,7.8068933,5.2887917,0,0,0,0,0,0,0,0,0,0,0,0,0,0,0,0,0,0,0,0,0
589,-0.9845485,-1.0688032,-0.20534664,-0.057784203,-0.123395175,-0.22568639,0.20275895,7.781754,4.6232033,0,0,0,0,0,0,0,0,0,0,0,0,0,0,0,0,0,0,0,0,0
590,-0.97893184,-1.0683416,-0.20106152,-0.040739972,-0.090371974,-0.26084012,-0.042646717,8.261791,4.7860093,0,0,0,0,0,0,0,0,0,0,0,0,0,0,0,0,0,0,0,0,0
591,-0.97151124,-1.0686431,-0.19606805,0.15313815,0.75225216,-0.2224906,-0.21263504,8.255806,4.370615,0,0,0,0,0,0,0,0,0,0,0,0,0,0,0,0,0,0,0,0,0
592,-0.90297383,-1.0941658,-0.008547178,0.1360854,1.0878057,-0.1298094,-1.6467619,8.4664955,5.3498435,0,0,0,0,0,0,0,0,0,0,0,0,0,0,0,0,0,0,0,0,0
593,-0.89091486,-1.0929759,-0.00318636,-0.23036556,0.4582344,0.2685995,-1.3678373,8.971672,5.1523223,0,0,0,0,0,0,0,0,0,0,0,0,0,0,0,0,0,0,0,0,0
594,-0.8865723,-1.0896647,-6.824536E-4,-0.6341008,0.23026782,0.5583514,-0.75492173,8.272566,6.1566896,0,0,0,0,0,0,0,0,0,0,0,0,0,0,0,0,0,0,0,0,0
595,-0.88237137,-1.0836546,0.004101788,-0.2591277,0.6957884,0.68618315,-1.9520226,8.32404,8.027759,0,0,0,0,0,0,0,0,0,0,0,0,0,0,0,0,0,0,0,0,0
596,-1.2025015,-1.101565,-0.19941573,0.3033319,0.48380077,1.1943142,-1.0565912,8.306085,7.2687964,0,0,0,0,0,0,0,0,0,0,0,0,0,0,0,0,0,0,0,0,0
597,-1.1992706,-1.0978031,-0.19691376,-0.17177603,-0.5239394,1.4691526,0.44457334,7.757812,5.971139,0,0,0,0,0,0,0,0,0,0,0,0,0,0,0,0,0,0,0,0,0
598,-1.201039,-1.093729,-0.1981933,-0.6319702,-0.89039034,1.4265419,1.4944308,7.213131,5.5976434,0,0,0,0,0,0,0,0,0,0,0,0,0,0,0,0,0,0,0,0,0
599,-1.2028766,-1.0874685,-0.1966543,-0.35393623,-0.33432233,1.3775398,0.90066874,7.377134,7.392098,0,0,0,0,0,0,0,0,0,0,0,0,0,0,0,0,0,0,0,0,0
600,-1.2068621,-1.0816891,-0.1986805,0.031689487,-0.5292657,1.4659567,1.9385552,6.7785835,6.3123126,0,0,0,0,0,0,0,0,0,0,0,0,0,0,0,0,0,0,0,0,0
601,-1.5574697,-1.0016079,-0.59743696,-0.1483402,-0.8531061,1.3189502,2.9405286,6.985682,4.983531,0,0,0,0,0,0,0,0,0,0,0,0,0,0,0,0,0,0,0,0,0
602,-1.5556147,-0.99798876,-0.59496933,0.017841049,-0.7455144,1.3210808,2.8591259,6.7211227,5.5725045,0,0,0,0,0,0,0,0,0,0,0,0,0,0,0,0,0,0,0,0,0
603,-1.5574772,-0.9956533,-0.60012716,0.27243924,-0.8104955,1.112289,4.1268554,6.6445084,3.6044707,0,0,0,0,0,0,0,0,0,0,0,0,0,0,0,0,0,0,0,0,0
604,-1.5593435,-0.99529666,-0.6086331,0.16484754,-0.6379227,0.5434377,4.214244,7.3148847,2.5570073,0,0,0,0,0,0,0,0,0,0,0,0,0,0,0,0,0,0,0,0,0
605,-1.5965701,-0.9831665,-0.6870686,0.003992611,-0.25016645,0.13863724,3.7198412,7.7183075,3.2668881,0,0,0,0,0,0,0,0,0,0,0,0,0,0,0,0,0,0,0,0,0
606,-1.5948012,-0.98467255,-0.69229877,-0.17603707,-0.13618314,-0.13513571,3.740192,8.18398,2.682703,0,0,0,0,0,0,0,0,0,0,0,0,0,0,0,0,0,0,0,0,0
607,-1.5902324,-0.9869647,-0.69518834,-0.5499449,0.27181312,-0.28320748,3.1739633,8.383896,2.8634653,0,0,0,0,0,0,0,0,0,0,0,0,0,0,0,0,0,0,0,0,0
608,-1.5827514,-0.98526376,-0.69014627,-0.90148216,0.4912576,-0.42701817,2.6256912,7.748235,5.533,0,0,0,0,0,0,0,0,0,0,0,0,0,0,0,0,0,0,0,0,0
609,-1.5748705,-0.9818274,-0.6818871,-0.6362313,0.3932533,-0.5537846,2.0343232,7.863157,7.1502833,0,0,0,0,0,0,0,0,0,0,0,0,0,0,0,0,0,0,0,0,0
610,-1.3944112,-0.9729002,-0.4809677,-0.06524958,0.52641135,-0.59746045,2.0486884,8.022371,6.4152637,0,0,0,0,0,0,0,0,0,0,0,0,0,0,0,0,0,0,0,0,0
611,-1.3926098,-0.97062236,-0.48044693,0.018906314,0.8332075,-0.60917836,2.8938417,7.6345105,5.9160724,0,0,0,0,0,0,0,0,0,0,0,0,0,0,0,0,0,0,0,0,0
612,-1.3947587,-0.9669135,-0.48054248,-0.27084562,0.74479055,-0.88827765,3.4109893,7.3100963,6.469133,0,0,0,0,0,0,0,0,0,0,0,0,0,0,0,0,0,0,0,0,0
613,-1.3956844,-0.962841,-0.47801915,-0.2836288,1.0111066,-1.2014654,2.565836,7.0742674,6.9348054,0,0,0,0,0,0,0,0,0,0,0,0,0,0,0,0,0,0,0,0,0
614,-1.112817,-1.0082141,-0.056720704,0.22450235,1.4872799,-1.2185097,1.8224365,7.760206,7.237672,0,0,0,0,0,0,0,0,0,0,0,0,0,0,0,0,0,0,0,0,0
615,-1.1135844,-1.0067078,-0.06102624,0.009318933,1.2795533,-1.2099875,1.5518916,7.792528,5.5641246,0,0,0,0,0,0,0,0,0,0,0,0,0,0,0,0,0,0,0,0,0
616,-1.11171,-1.0028493,-0.05992884,-0.8407621,0.7575737,-1.228097,0.041150343,7.0754647,6.6846113,0,0,0,0,0,0,0,0,0,0,0,0,0,0,0,0,0,0,0,0,0
617,-1.1133108,-0.9956676,-0.055042695,-0.6404924,0.49658394,-0.8339492,-1.8778024,7.685986,10.068815,0,0,0,0,0,0,0,0,0,0,0,0,0,0,0,0,0,0,0,0,0
618,-1.1097898,-0.99059856,-0.050905168,0.37470463,0.2973795,-0.26616323,-1.1966519,7.256227,7.8206596,0,0,0,0,0,0,0,0,0,0,0,0,0,0,0,0,0,0,0,0,0
619,-1.0497911,-1.0504112,0.04229411,0.4055973,0.18126567,-0.08080723,-0.8339304,7.293337,6.078878,0,0,0,0,0,0,0,0,0,0,0,0,0,0,0,0,0,0,0,0,0
620,-1.0428483,-1.047003,0.044325545,-0.0077252975,-0.33645284,0.108809836,-0.9045593,7.6321163,6.244078,0,0,0,0,0,0,0,0,0,0,0,0,0,0,0,0,0,0,0,0,0
621,-1.0389585,-1.0443088,0.043940246,-0.22503924,-0.7838639,0.35382065,-0.1479916,7.6333137,5.9041014,0,0,0,0,0,0,0,0,0,0,0,0,0,0,0,0,0,0,0,0,0
622,-1.0414965,-1.0409334,0.039375614,-0.2111908,-0.9873294,0.34316802,1.0969933,7.176021,5.884948,0,0,0,0,0,0,0,0,0,0,0,0,0,0,0,0,0,0,0,0,0
623,-1.0915412,-1.0218707,-0.13137126,-0.016247412,-0.82540923,0.0321108,2.0534768,6.287772,5.6156,0,0,0,0,0,0,0,0,0,0,0,0,0,0,0,0,0,0,0,0,0
624,-1.0905306,-1.0210726,-0.1331348,0.32357195,-0.200099,-0.16070206,1.1700164,8.04392,5.243302,0,0,0,0,0,0,0,0,0,0,0,0,0,0,0,0,0,0,0,0,0
625,-1.0891132,-1.0190637,-0.1333606,0.43755522,0.34957743,-0.23100951,0.8252514,7.53994,5.674258,0,0,0,0,0,0,0,0,0,0,0,0,0,0,0,0,0,0,0,0,0
626,-1.0845017,-1.0165663,-0.13092943,0.13287549,-0.0030328077,-0.2725495,0.07466917,7.8787193,6.326678,0,0,0,0,0,0,0,0,0,0,0,0,0,0,0,0,0,0,0,0,0
627,-1.0796815,-1.0135474,-0.12784176,-0.15261537,-0.48559758,-0.15323989,-0.1539771,7.713519,6.563704,0,0,0,0,0,0,0,0,0,0,0,0,0,0,0,0,0,0,0,0,0
628,-1.0390159,-0.99082947,-0.16206084,-0.09296057,-0.4973155,-0.1319346,-0.03187281,7.3711486,6.849811,0,0,0,0,0,0,0,0,0,0,0,0,0,0,0,0,0,0,0,0,0
629,-1.0348037,-0.98845327,-0.15879542,0.1957261,-0.28745842,-0.08719349,-0.007930793,7.802105,6.555324,0,0,0,0,0,0,0,0,0,0,0,0,0,0,0,0,0,0,0,0,0
630,-1.0334526,-0.98667455,-0.15814933,0.43328005,-0.011554923,-0.04564818,0.76300216,7.61416,5.9998693,0,0,0,0,0,0,0,0,0,0,0,0,0,0,0,0,0,0,0,0,0
631,-1.0323701,-0.98549575,-0.15823756,0.3991916,0.096036784,-0.18519782,0.9569325,7.8906903,5.8346696,0,0,0,0,0,0,0,0,0,0,0,0,0,0,0,0,0,0,0,0,0
632,-0.9520969,-1.0445838,-0.06440986,0.45565063,0.30269808,-0.42914337,0.24226329,8.130111,5.853823,0,0,0,0,0,0,0,0,0,0,0,0,0,0,0,0,0,0,0,0,0
633,-0.94359684,-1.042647,-0.06068005,0.707053,0.68299747,-0.53460455,-0.73935944,8.449737,6.0262055,0,0,0,0,0,0,0,0,0,0,0,0,0,0,0,0,0,0,0,0,0
634,-0.93306166,-1.0416974,-0.056162234,0.8870827,0.77674073,-0.50477713,-0.9057564,8.486847,5.4324436,0,0,0,0,0,0,0,0,0,0,0,0,0,0,0,0,0,0,0,0,0
635,-0.9181458,-1.0431994,-0.049177285,0.6953351,0.43266034,-0.45044866,-1.2253823,8.69155,4.060566,0,0,0,0,0,0,0,0,0,0,0,0,0,0,0,0,0,0,0,0,0
636,-0.902872,-1.0438067,-0.04104734,0.2852083,0.35383078,-0.32900852,-1.6898575,8.902241,4.5262384,0,0,0,0,0,0,0,0,0,0,0,0,0,0,0,0,0,0,0,0,0
637,-0.81062895,-1.0733922,0.08031127,0.10730915,0.278197,-0.096780874,-1.6300025,8.47727,5.1642933,0,0,0,0,0,0,0,0,0,0,0,0,0,0,0,0,0,0,0,0,0
638,-0.80404454,-1.071302,0.08349775,0.010370083,0.01827248,0.04276877,-1.3091794,8.029554,5.3582234,0,0,0,0,0,0,0,0,0,0,0,0,0,0,0,0,0,0,0,0,0
639,-0.7997178,-1.0694062,0.085467525,-0.10361321,-0.14151718,0.10029305,-0.93448687,7.6404963,5.0781016,0,0,0,0,0,0,0,0,0,0,0,0,0,0,0,0,0,0,0,0,0
640,-0.7984931,-1.0666292,0.08654456,-0.11533112,-0.06268761,0.099227786,-0.75372463,7.2861543,5.374983,0,0,0,0,0,0,0,0,0,0,0,0,0,0,0,0,0,0,0,0,0
641,-0.8316371,-1.0597537,0.05928574,0.087069124,0.069405176,0.11520675,-0.32875383,7.213131,5.4527946,0,0,0,0,0,0,0,0,0,0,0,0,0,0,0,0,0,0,0,0,0
642,-0.8332382,-1.0581309,0.058093518,0.22981882,0.09177785,0.12372727,0.05312135,7.5590935,4.927267,0,0,0,0,0,0,0,0,0,0,0,0,0,0,0,0,0,0,0,0,0
643,-0.83584535,-1.057695,0.055075657,0.09026918,0.09284312,0.13224939,0.42302552,7.712322,4.545392,0,0,0,0,0,0,0,0,0,0,0,0,0,0,0,0,0,0,0,0,0
644,-0.83858395,-1.0564269,0.05276388,-0.13237108,0.038514636,0.116270415,0.30810383,7.8356237,5.085284,0,0,0,0,0,0,0,0,0,0,0,0,0,0,0,0,0,0,0,0,0
645,-0.8823294,-1.023999,0.014294517,-0.23783226,-0.011552793,0.14929362,0.15846622,7.924209,5.483919,0,0,0,0,0,0,0,0,0,0,0,0,0,0,0,0,0,0,0,0,0
646,-0.8851989,-1.0217223,0.01392698,-0.28257337,0.036384106,0.1375757,0.02439093,7.6883802,5.9747305,0,0,0,0,0,0,0,0,0,0,0,0,0,0,0,0,0,0,0,0,0
647,-0.88883954,-1.018741,0.013846155,-0.20800486,-0.022205437,0.0630072,-0.06180033,7.450157,6.2512608,0,0,0,0,0,0,0,0,0,0,0,0,0,0,0,0,0,0,0,0,0
648,-0.89150184,-1.0160023,0.0141969565,-0.14302373,-0.070142336,-0.063759275,-0.19228433,7.439383,6.1243677,0,0,0,0,0,0,0,0,0,0,0,0,0,0,0,0,0,0,0,0,0
649,-0.89109385,-1.0139096,0.015740247,-0.05034573,0.01827461,-0.15537201,-0.54782325,7.745841,5.979519,0,0,0,0,0,0,0,0,0,0,0,0,0,0,0,0,0,0,0,0,0
650,-0.83779204,-1.0134189,0.06579221,0.042332277,0.11201788,-0.22035314,-1.0039186,7.924209,5.481525,0,0,0,0,0,0,0,0,0,0,0,0,0,0,0,0,0,0,0,0,0
651,-0.8317056,-1.0123196,0.06943615,0.13074923,0.35596344,-0.16495939,-1.4085388,8.169615,5.5629277,0,0,0,0,0,0,0,0,0,0,0,0,0,0,0,0,0,0,0,0,0
652,-0.8254629,-1.0114383,0.07304374,0.25218937,0.46035933,-0.07121612,-1.3726257,8.071452,5.379771,0,0,0,0,0,0,0,0,0,0,0,0,0,0,0,0,0,0,0,0,0
653,-0.8205243,-1.0115352,0.075502664,0.28521258,0.42094457,-0.009430786,-0.97159696,8.05589,4.8937483,0,0,0,0,0,0,0,0,0,0,0,0,0,0,0,0,0,0,0,0,0
654,-0.8189325,-1.0192952,0.09755876,0.0476586,0.17380323,0.009743974,-0.4245219,8.464102,4.4843397,0,0,0,0,0,0,0,0,0,0,0,0,0,0,0,0,0,0,0,0,0
655,-0.8169462,-1.0199031,0.09755632,-0.40507877,0.0129482895,0.024657676,-0.48677114,8.71669,4.9799395,0,0,0,0,0,0,0,0,0,0,0,0,0,0,0,0,0,0,0,0,0
656,-0.8184704,-1.0177567,0.097707205,-0.5116052,0.07473362,0.06939878,-0.67232174,8.288128,6.373365,0,0,0,0,0,0,0,0,0,0,0,0,0,0,0,0,0,0,0,0,0
657,-0.82286507,-1.0142154,0.09784728,-0.19735222,0.15995479,-0.0051697283,-0.7166145,7.65965,6.8186865,0,0,0,0,0,0,0,0,0,0,0,0,0,0,0,0,0,0,0,0,0
658,-0.8253892,-1.0111698,0.09851004,0.13501029,0.14930214,-0.1617636,-0.8686463,7.755418,6.5936313,0,0,0,0,0,0,0,0,0,0,0,0,0,0,0,0,0,0,0,0,0
659,-0.7616053,-1.0409297,0.16994867,0.30865958,0.13332956,-0.21290055,-1.0218753,8.363545,5.6419363,0,0,0,0,0,0,0,0,0,0,0,0,0,0,0,0,0,0,0,0,0
660,-0.7567948,-1.0402601,0.17208241,0.15952255,0.1652875,-0.14791942,-1.4743793,8.546701,5.1930237,0,0,0,0,0,0,0,0,0,0,0,0,0,0,0,0,0,0,0,0,0
661,-0.7529934,-1.0375644,0.1750189,-0.11425041,0.25903076,-0.025414014,-2.0501847,8.333617,6.209362,0,0,0,0,0,0,0,0,0,0,0,0,0,0,0,0,0,0,0,0,0
662,-0.7538116,-1.0329678,0.17724621,-0.098271444,-0.0775928,0.1120051,-2.099266,7.7709804,7.1287355,0,0,0,0,0,0,0,0,0,0,0,0,0,0,0,0,0,0,0,0,0
663,-0.78487605,-1.046444,0.0899653,0.1041288,-0.4632185,0.13863671,-1.5043069,7.804499,5.9041014,0,0,0,0,0,0,0,0,0,0,0,0,0,0,0,0,0,0,0,0,0
664,-0.7813584,-1.0457752,0.09272183,0.18615416,-0.36627945,0.12798406,-1.1655273,8.272566,5.0278234,0,0,0,0,0,0,0,0,0,0,0,0,0,0,0,0,0,0,0,0,0
665,-0.7781527,-1.045645,0.09508983,0.13502146,-0.1702708,0.13437565,-1.0577883,8.585009,4.935647,0,0,0,0,0,0,0,0,0,0,0,0,0,0,0,0,0,0,0,0,0
666,-0.7764557,-1.0446466,0.0970581,0.040212933,-0.06480962,0.15141988,-1.054197,8.458116,5.379771,0,0,0,0,0,0,0,0,0,0,0,0,0,0,0,0,0,0,0,0,0
667,-0.77620816,-1.0427687,0.098776035,7.981494E-4,-0.087180175,0.1120051,-1.0733505,8.262989,5.801151,0,0,0,0,0,0,0,0,0,0,0,0,0,0,0,0,0,0,0,0,0
668,-0.8007192,-1.0414221,0.06441188,0.012516058,-0.10955073,0.074720845,-1.066168,8.162432,5.8454432,0,0,0,0,0,0,0,0,0,0,0,0,0,0,0,0,0,0,0,0,0
669,-0.8017194,-1.0389607,0.06622406,0.094541416,-0.01580746,0.073655576,-0.93089557,7.8906903,5.9567738,0,0,0,0,0,0,0,0,0,0,0,0,0,0,0,0,0,0,0,0,0
670,-0.805078,-1.0358857,0.06713068,0.1520657,0.0033673008,0.036371324,-0.698658,7.6728177,6.2368956,0,0,0,0,0,0,0,0,0,0,0,0,0,0,0,0,0,0,0,0,0
671,-0.80669695,-1.0333474,0.06847104,0.24687423,-0.117007576,-0.048849832,-0.817171,7.8428063,6.054936,0,0,0,0,0,0,0,0,0,0,0,0,0,0,0,0,0,0,0,0,0
672,-0.7744922,-1.0738301,0.073287055,0.33103013,-0.18518451,-0.10104779,-0.92371297,8.05589,5.437232,0,0,0,0,0,0,0,0,0,0,0,0,0,0,0,0,0,0,0,0,0
673,-0.7714916,-1.072602,0.07594558,0.3736407,-0.17879292,-0.11702675,-1.0637738,8.316858,5.085284,0,0,0,0,0,0,0,0,0,0,0,0,0,0,0,0,0,0,0,0,0
674,-0.7674263,-1.0721196,0.07878925,0.35553122,-0.20116347,-0.1276794,-1.0613796,8.520366,4.7884035,0,0,0,0,0,0,0,0,0,0,0,0,0,0,0,0,0,0,0,0,0
675,-0.76197517,-1.0725015,0.08203837,0.37257543,-0.1883803,-0.07761197,-1.1056722,8.898649,4.4939165,0,0,0,0,0,0,0,0,0,0,0,0,0,0,0,0,0,0,0,0,0
676,-0.7576768,-1.0739963,0.083825685,0.34806183,-0.114883974,0.014005564,-0.6854899,8.914211,3.9600096,0,0,0,0,0,0,0,0,0,0,0,0,0,0,0,0,0,0,0,0,0
677,-0.7535129,-1.1187439,0.07483078,0.24686171,0.10988682,0.061942462,-0.53824645,9.11293,3.311181,0,0,0,0,0,0,0,0,0,0,0,0,0,0,0,0,0,0,0,0,0
678,-0.7478062,-1.1197207,0.07783227,0.14885738,0.55623263,0.17805628,-0.8758289,9.206305,3.8283286,0,0,0,0,0,0,0,0,0,0,0,0,0,0,0,0,0,0,0,0,0
679,-0.7442436,-1.118631,0.08074901,-0.06526076,0.4582283,0.32506278,-1.0805331,8.800487,4.7500963,0,0,0,0,0,0,0,0,0,0,0,0,0,0,0,0,0,0,0,0,0
680,-0.7447054,-1.1163785,0.0821034,-0.2229199,-0.12234083,0.41028392,-0.7788637,8.309675,5.207389,0,0,0,0,0,0,0,0,0,0,0,0,0,0,0,0,0,0,0,0,0
681,-0.8557989,-1.1012852,-0.079998806,-0.06845655,-0.505836,0.35062912,-0.029478608,8.022371,4.44723,0,0,0,0,0,0,0,0,0,0,0,0,0,0,0,0,0,0,0,0,0
682,-0.8578538,-1.1018738,-0.08037988,0.103051014,-0.3151537,0.2345153,0.3871125,8.313267,3.8953662,0,0,0,0,0,0,0,0,0,0,0,0,0,0,0,0,0,0,0,0,0
683,-0.86132145,-1.1021575,-0.08141704,0.11370366,-0.10423133,0.16420785,0.5439327,8.437765,4.0892963,0,0,0,0,0,0,0,0,0,0,0,0,0,0,0,0,0,0,0,0,0
684,-0.86482567,-1.1017298,-0.08196042,0.06576676,-0.10955765,0.027854001,0.48168346,8.33242,4.4184995,0,0,0,0,0,0,0,0,0,0,0,0,0,0,0,0,0,0,0,0,0
685,-0.86465365,-1.1018467,-0.08037379,0.046592005,-0.1532335,-0.09252088,0.011222821,8.546701,4.268862,0,0,0,0,0,0,0,0,0,0,0,0,0,0,0,0,0,0,0,0,0
686,-0.8338101,-1.1088941,-0.06676736,0.04126568,-0.053098638,-0.104238786,-0.1743278,8.618527,4.4161053,0,0,0,0,0,0,0,0,0,0,0,0,0,0,0,0,0,0,0,0,0
687,-0.83346295,-1.1078413,-0.064082764,0.07109308,0.0054909056,-0.05843242,-0.3012205,8.516774,4.829105,0,0,0,0,0,0,0,0,0,0,0,0,0,0,0,0,0,0,0,0,0
688,-0.83385736,-1.1066784,-0.06182705,0.09878996,-0.015814383,-0.029670278,-0.23298575,8.337209,4.7800236,0,0,0,0,0,0,0,0,0,0,0,0,0,0,0,0,0,0,0,0,0
689,-0.8350157,-1.1055913,-0.060257852,0.06257097,-0.09783974,-0.024343956,-0.07736264,8.152855,4.650737,0,0,0,0,0,0,0,0,0,0,0,0,0,0,0,0,0,0,0,0,0
690,-0.82359266,-1.1079589,-0.060010917,0.023156185,-0.07440393,-0.050975565,0.08664017,8.1480665,4.4196963,0,0,0,0,0,0,0,0,0,0,0,0,0,0,0,0,0,0,0,0,0
691,-0.82614946,-1.1071345,-0.059624158,0.106246814,0.07899415,-0.057367153,0.18599954,8.292916,4.570531,0,0,0,0,0,0,0,0,0,0,0,0,0,0,0,0,0,0,0,0,0
692,-0.8283082,-1.1065611,-0.059225667,0.15098792,0.09603838,-0.08080297,0.18121114,8.511986,4.5621514,0,0,0,0,0,0,0,0,0,0,0,0,0,0,0,0,0,0,0,0,0
693,-0.8282769,-1.106246,-0.05752623,0.0018298579,0.03956765,-0.12127503,-0.11686697,8.720282,4.5382094,0,0,0,0,0,0,0,0,0,0,0,0,0,0,0,0,0,0,0,0,0
694,-0.8265644,-1.1054361,-0.054300975,-0.116414495,0.015066568,-0.0893171,-0.50712186,8.857947,4.871003,0,0,0,0,0,0,0,0,0,0,0,0,0,0,0,0,0,0,0,0,0
695,-0.80891365,-1.0848764,-0.035637245,-0.1398503,-0.12554833,-0.007291735,-0.39459437,8.640076,5.365406,0,0,0,0,0,0,0,0,0,0,0,0,0,0,0,0,0,0,0,0,0
696,-0.80943775,-1.0838038,-0.033420328,-0.083391294,-0.20331264,-0.045641255,-0.39220017,8.71669,5.2049947,0,0,0,0,0,0,0,0,0,0,0,0,0,0,0,0,0,0,0,0,0
697,-0.80880964,-1.0830525,-0.030792702,0.009286709,-0.156441,-0.04777178,-0.49634793,8.770559,5.0505686,0,0,0,0,0,0,0,0,0,0,0,0,0,0,0,0,0,0,0,0,0
698,-0.8066973,-1.0820658,-0.027087353,-0.004561729,-0.15111469,-0.038184404,-0.8063971,8.801684,5.1786585,0,0,0,0,0,0,0,0,0,0,0,0,0,0,0,0,0,0,0,0,0
699,-0.80339026,-1.0854661,-0.046343796,0.065745726,-0.1958558,0.023600934,-0.9141361,8.916606,5.1104236,0,0,0,0,0,0,0,0,0,0,0,0,0,0,0,0,0,0,0,0,0
700,-0.80004233,-1.0860263,-0.042698137,0.07000678,-0.19265999,0.09497365,-0.5992986,8.986037,4.381389,0,0,0,0,0,0,0,0,0,0,0,0,0,0,0,0,0,0,0,0,0
701,-0.7997142,-1.086262,-0.0410102,-0.15689453,-0.13407046,0.14504108,-0.18510172,8.677185,4.4364557,0,0,0,0,0,0,0,0,0,0,0,0,0,0,0,0,0,0,0,0,0
702,-0.80199903,-1.0850949,-0.03994603,-0.34864214,-0.20970422,0.12586632,-0.054617725,8.3312235,5.171476,0,0,0,0,0,0,0,0,0,0,0,0,0,0,0,0,0,0,0,0,0
703,-0.8066185,-1.0827367,-0.0392233,-0.24318096,-0.24592322,0.057689395,0.020799628,7.9194207,5.459977,0,0,0,0,0,0,0,0,0,0,0,0,0,0,0,0,0,0,0,0,0
704,-0.81944174,-1.0532869,-0.079012156,-0.03119334,-0.19372526,-0.07653392,0.24705169,7.721899,4.8757915,0,0,0,0,0,0,0,0,0,0,0,0,0,0,0,0,0,0,0,0,0
705,-0.8200292,-1.0537046,-0.077489085,0.17759849,-0.003042928,-0.20543092,-0.0163105,8.096592,4.2102036,0,0,0,0,0,0,0,0,0,0,0,0,0,0,0,0,0,0,0,0,0
706,-0.81715363,-1.0555769,-0.074753314,0.215948,0.16526885,-0.23206253,-0.22700025,8.497621,3.8235402,0,0,0,0,0,0,0,0,0,0,0,0,0,0,0,0,0,0,0,0,0
707,-0.81201744,-1.0577998,-0.07070975,0.09770366,0.1759215,-0.20436566,-0.48557404,8.93576,3.7900212,0,0,0,0,0,0,0,0,0,0,0,0,0,0,0,0,0,0,0,0,0
708,-0.7764152,-1.0535719,-0.016987054,-0.07806497,0.16526885,-0.068011805,-0.55141455,9.170391,4.3837833,0,0,0,0,0,0,0,0,0,0,0,0,0,0,0,0,0,0,0,0,0
709,-0.7741203,-1.0543859,-0.014510182,-0.106818855,0.08324802,0.016140888,-0.50592476,9.189545,4.7165775,0,0,0,0,0,0,0,0,0,0,0,0,0,0,0,0,0,0,0,0,0
710,-0.7727558,-1.0549912,-0.012662038,-0.13131994,-0.038192127,0.1354505,-0.37544075,9.129689,4.8099513,0,0,0,0,0,0,0,0,0,0,0,0,0,0,0,0,0,0,0,0,0
711,-0.7727366,-1.0551188,-0.01134547,-0.11321045,-0.052040566,0.22919378,-0.2629133,8.8567505,4.9404354,0,0,0,0,0,0,0,0,0,0,0,0,0,0,0,0,0,0,0,0,0
712,-0.7734536,-1.0547196,-0.010081068,-0.065273546,0.009744773,0.2760654,-0.3000234,8.684368,5.2037973,0,0,0,0,0,0,0,0,0,0,0,0,0,0,0,0,0,0,0,0,0
713,-0.8448821,-1.0454066,-0.06772893,-0.020532439,0.10135751,0.28884858,-0.65915364,8.822035,5.1678843,0,0,0,0,0,0,0,0,0,0,0,0,0,0,0,0,0,0,0,0,0
714,-0.83714056,-1.0451773,-0.06122323,-0.07166513,0.33678097,0.3932445,-1.3905823,9.172785,5.279215,0,0,0,0,0,0,0,0,0,0,0,0,0,0,0,0,0,0,0,0,0
715,-0.83334625,-1.0439515,-0.056201845,-0.20908424,0.49870116,0.6808659,-1.1260229,8.971672,5.8598084,0,0,0,0,0,0,0,0,0,0,0,0,0,0,0,0,0,0,0,0,0
716,-0.84136873,-1.0409714,-0.05682559,-0.3816571,0.3325199,0.86941767,0.5259762,7.515998,6.003461,0,0,0,0,0,0,0,0,0,0,0,0,0,0,0,0,0,0,0,0,0
717,-1.0381119,-0.9791577,-0.19584548,-0.2996317,0.11627121,0.73945546,1.0550947,7.2310877,6.254852,0,0,0,0,0,0,0,0,0,0,0,0,0,0,0,0,0,0,0,0,0
718,-1.0459757,-0.9773146,-0.19735382,-0.0066840015,-0.12128275,0.57646996,1.6237177,7.435792,5.8382607,0,0,0,0,0,0,0,0,0,0,0,0,0,0,0,0,0,0,0,0,0
719,-1.0547458,-0.9771629,-0.20262861,0.06362345,-0.5473885,0.14077683,2.3551462,7.719505,4.7405195,0,0,0,0,0,0,0,0,0,0,0,0,0,0,0,0,0,0,0,0,0
720,-1.0623736,-0.97752446,-0.20774809,0.045513954,-0.60384756,-0.27893737,2.3132477,8.053496,4.6830587,0,0,0,0,0,0,0,0,0,0,0,0,0,0,0,0,0,0,0,0,0
721,-0.9192767,-1.0180125,-0.15110555,0.1850636,-0.48666844,-0.6517799,1.769764,8.133701,4.38498,0,0,0,0,0,0,0,0,0,0,0,0,0,0,0,0,0,0,0,0,0
722,-0.9204418,-1.0200202,-0.1518637,0.46522814,-0.04138792,-0.83607066,0.6193501,8.464102,3.8642416,0,0,0,0,0,0,0,0,0,0,0,0,0,0,0,0,0,0,0,0,0
723,-0.9156762,-1.0239776,-0.1498758,0.565363,0.55302966,-0.8669633,0.17043723,8.823232,3.2453403,0,0,0,0,0,0,0,0,0,0,0,0,0,0,0,0,0,0,0,0,0
724,-0.90654176,-1.0251415,-0.14329511,0.1999773,0.8481079,-0.8286138,-0.8279449,8.739435,4.571728,0,0,0,0,0,0,0,0,0,0,0,0,0,0,0,0,0,0,0,0,0
725,-0.8953979,-1.0245456,-0.13478337,0.07534136,0.542377,-0.6634978,-1.5988778,8.848371,5.5126495,0,0,0,0,0,0,0,0,0,0,0,0,0,0,0,0,0,0,0,0,0
726,-0.7673607,-1.0347285,-0.009130532,0.012479573,-0.08720042,-0.36095846,-1.7509097,8.743026,5.2600613,0,0,0,0,0,0,0,0,0,0,0,0,0,0,0,0,0,0,0,0,0
727,-0.76061803,-1.0359483,-0.003978266,-0.14837536,-0.47602195,-0.1681456,-1.09011,8.617331,4.296395,0,0,0,0,0,0,0,0,0,0,0,0,0,0,0,0,0,0,0,0,0
728,-0.7570404,-1.03707,-5.0667487E-4,-0.1473101,-0.28640488,-0.11381711,-0.74414784,8.494029,4.345476,0,0,0,0,0,0,0,0,0,0,0,0,0,0,0,0,0,0,0,0,0
729,-0.7551862,-1.0380218,0.0019513997,-0.023739418,-0.079743564,-0.08931603,-0.53704935,8.32404,4.3658266,0,0,0,0,0,0,0,0,0,0,0,0,0,0,0,0,0,0,0,0,0
730,-0.73313326,-1.0368352,0.023578065,-0.015217302,0.012934441,-0.077598125,-0.61366385,8.511986,4.4556093,0,0,0,0,0,0,0,0,0,0,0,0,0,0,0,0,0,0,0,0,0
731,-0.7316054,-1.0378947,0.025887508,-0.08765528,0.028913407,-0.022204371,-0.63162035,8.732252,4.51307,0,0,0,0,0,0,0,0,0,0,0,0,0,0,0,0,0,0,0,0,0
732,-0.7321133,-1.0382267,0.027408842,-0.14944062,-0.04245931,0.100301035,-0.49993923,8.653243,4.8865657,0,0,0,0,0,0,0,0,0,0,0,0,0,0,0,0,0,0,0,0,0
733,-0.73544544,-1.0376077,0.027920298,-0.21655227,-0.15537734,0.12480212,-0.28326398,8.465299,5.341464,0,0,0,0,0,0,0,0,0,0,0,0,0,0,0,0,0,0,0,0,0
734,-0.74040794,-1.0366347,0.027652558,-0.119613215,-0.19905318,0.101366304,-0.039055414,8.345589,5.529409,0,0,0,0,0,0,0,0,0,0,0,0,0,0,0,0,0,0,0,0,0
735,-0.75854963,-1.0300728,-0.011186671,0.009283779,-0.18094368,0.029993584,-0.07736264,8.33242,5.327099,0,0,0,0,0,0,0,0,0,0,0,0,0,0,0,0,0,0,0,0,0
736,-0.7619102,-1.0297765,-0.01072581,0.18718293,0.009738647,-0.047770716,-0.06180033,8.397064,5.2121773,0,0,0,0,0,0,0,0,0,0,0,0,0,0,0,0,0,0,0,0,0
737,-0.7644937,-1.0299753,-0.010260653,0.22553246,0.038500786,-0.10955606,-0.06299743,8.558673,5.009867,0,0,0,0,0,0,0,0,0,0,0,0,0,0,0,0,0,0,0,0,0
738,-0.76606387,-1.0301373,-0.009270629,0.1317892,-0.07654777,-0.11275185,-0.20186113,8.727464,5.141548,0,0,0,0,0,0,0,0,0,0,0,0,0,0,0,0,0,0,0,0,0
739,-0.74425024,-1.0331229,-0.034674708,0.021001687,-0.35351652,-0.094642356,-0.054617725,8.573038,5.1786585,0,0,0,0,0,0,0,0,0,0,0,0,0,0,0,0,0,0,0,0,0
740,-0.7464847,-1.0333406,-0.033727493,0.04976383,-0.44939032,-0.13299187,-0.06299743,8.5383215,4.9655743,0,0,0,0,0,0,0,0,0,0,0,0,0,0,0,0,0,0,0,0,0
741,-0.7476753,-1.0342411,-0.0327026,0.089178614,-0.3662997,-0.15855822,-0.07975684,8.486847,4.5525746,0,0,0,0,0,0,0,0,0,0,0,0,0,0,0,0,0,0,0,0,0
742,-0.74803764,-1.0350829,-0.03110688,0.13924605,-0.11809308,-0.1649498,-0.21383214,8.426991,4.5382094,0,0,0,0,0,0,0,0,0,0,0,0,0,0,0,0,0,0,0,0,0
743,-0.7467476,-1.0362551,-0.0288591,0.17971757,0.039561257,-0.20862246,-0.35389295,8.43178,4.344279,0,0,0,0,0,0,0,0,0,0,0,0,0,0,0,0,0,0,0,0,0
744,-0.6871584,-1.0659268,0.046637684,0.28517875,0.4006859,-0.20542666,-0.5597943,8.520366,4.1144357,0,0,0,0,0,0,0,0,0,0,0,0,0,0,0,0,0,0,0,0,0
745,-0.68198794,-1.066649,0.0505082,0.50036216,0.9567539,-0.16068555,-1.0685622,8.871116,4.3634324,0,0,0,0,0,0,0,0,0,0,0,0,0,0,0,0,0,0,0,0,0
746,-0.67579645,-1.0673685,0.054967955,0.35548618,0.7745937,-0.06161596,-1.2170026,8.91062,4.3382936,0,0,0,0,0,0,0,0,0,0,0,0,0,0,0,0,0,0,0,0,0
747,-0.67111325,-1.0676407,0.058718987,-0.06209746,0.008668589,0.07154209,-1.1200374,8.747814,4.5274353,0,0,0,0,0,0,0,0,0,0,0,0,0,0,0,0,0,0,0,0,0
748,-0.712126,-1.0265597,-0.041337654,-0.32308725,-0.51331097,0.17700328,-0.8279449,8.727464,4.3239284,0,0,0,0,0,0,0,0,0,0,0,0,0,0,0,0,0,0,0,0,0
749,-0.7108221,-1.0283178,-0.038092695,-0.24106188,-0.39719716,0.18659066,-0.50951606,8.605359,4.1934443,0,0,0,0,0,0,0,0,0,0,0,0,0,0,0,0,0,0,0,0,0
750,-0.71004754,-1.0297295,-0.03488066,-0.083402745,-0.13301158,0.13013163,-0.54064065,8.668806,4.390966,0,0,0,0,0,0,0,0,0,0,0,0,0,0,0,0,0,0,0,0,0
751,-0.7096421,-1.0310359,-0.03190904,-0.04505323,-0.15218633,0.11308741,-0.50113636,8.774151,4.4448357,0,0,0,0,0,0,0,0,0,0,0,0,0,0,0,0,0,0,0,0,0
752,-0.708208,-1.0326658,-0.028563326,-0.057836402,-0.19586217,0.08112948,-0.5909189,8.875904,4.3382936,0,0,0,0,0,0,0,0,0,0,0,0,0,0,0,0,0,0,0,0,0
753,-0.7318674,-1.023715,-0.07120505,-0.11962174,-0.17881794,0.11415267,-0.47599724,8.764574,4.23654,0,0,0,0,0,0,0,0,0,0,0,0,0,0,0,0,0,0,0,0,0
754,-0.7324829,-1.0246251,-0.06806192,-0.21229975,-0.11703261,0.093912646,-0.40536827,8.611345,4.7046065,0,0,0,0,0,0,0,0,0,0,0,0,0,0,0,0,0,0,0,0,0
755,-0.7325277,-1.0252988,-0.06475131,-0.09618592,-0.033941988,0.107761085,-0.48078564,8.519168,4.746505,0,0,0,0,0,0,0,0,0,0,0,0,0,0,0,0,0,0,0,0,0
756,-0.7339273,-1.0260952,-0.06251513,-0.120687,-0.035007253,0.12906638,-0.21862054,8.393473,4.642357,0,0,0,0,0,0,0,0,0,0,0,0,0,0,0,0,0,0,0,0,0
757,-0.7469937,-1.0039133,-0.07541131,-0.16649337,-0.045659896,0.052367333,-0.11088146,8.228272,4.9021277,0,0,0,0,0,0,0,0,0,0,0,0,0,0,0,0,0,0,0,0,0
758,-0.748892,-1.0042034,-0.07283857,-0.07488063,0.0033422671,-0.028592762,-0.27009588,8.258201,5.0182467,0,0,0,0,0,0,0,0,0,0,0,0,0,0,0,0,0,0,0,0,0
759,-0.7493814,-1.0049154,-0.069969624,-0.015214372,0.065134,-0.038184404,-0.34671032,8.368334,4.9021277,0,0,0,0,0,0,0,0,0,0,0,0,0,0,0,0,0,0,0,0,0
760,-0.7500302,-1.0059375,-0.067546606,-0.039715454,0.025719212,-0.036053874,-0.24136546,8.3408,4.711789,0,0,0,0,0,0,0,0,0,0,0,0,0,0,0,0,0,0,0,0,0
761,-0.7500987,-1.0070193,-0.06501515,-0.12387134,-0.03180507,-0.033923347,-0.24375966,8.6496525,4.8123455,0,0,0,0,0,0,0,0,0,0,0,0,0,0,0,0,0,0,0,0,0
762,-0.73721045,-0.9893404,-0.06041834,-0.16861245,-0.086133555,-0.02753176,-0.4664204,8.501212,5.088876,0,0,0,0,0,0,0,0,0,0,0,0,0,0,0,0,0,0,0,0,0
763,-0.73789036,-0.9906778,-0.058279518,-0.069542855,-0.10530831,0.009752496,-0.22700025,8.632893,4.8757915,0,0,0,0,0,0,0,0,0,0,0,0,0,0,0,0,0,0,0,0,0
764,-0.73803204,-0.99211735,-0.055940934,-0.0013659353,0.014001303,0.026796727,-0.28685528,8.787319,4.8853683,0,0,0,0,0,0,0,0,0,0,0,0,0,0,0,0,0,0,0,0,0
765,-0.73825365,-0.9934614,-0.05364994,-0.0013659353,0.077917166,0.080059946,-0.29044658,8.834005,4.950012,0,0,0,0,0,0,0,0,0,0,0,0,0,0,0,0,0,0,0,0,0
766,-0.7621238,-0.97798026,-0.07292125,-0.118545026,-0.01795663,0.10136524,-0.14200608,8.567052,5.023035,0,0,0,0,0,0,0,0,0,0,0,0,0,0,0,0,0,0,0,0,0
767,-0.763699,-0.9788911,-0.07088669,-0.12387134,-0.052045092,0.098169446,-0.1491887,8.500014,5.177461,0,0,0,0,0,0,0,0,0,0,0,0,0,0,0,0,0,0,0,0,0
768,-0.7653255,-0.9796794,-0.06894521,0.04870149,0.1397025,0.10456103,-0.13602059,8.425795,5.1930237,0,0,0,0,0,0,0,0,0,0,0,0,0,0,0,0,0,0,0,0,0
769,-0.7671872,-0.98056924,-0.06733222,0.11261736,0.14289829,0.1024305,-0.06060323,8.509591,5.177461,0,0,0,0,0,0,0,0,0,0,0,0,0,0,0,0,0,0,0,0,0
770,-0.7690837,-0.98159635,-0.06610113,-0.03119334,-0.09785146,0.08645154,0.029179333,8.447342,5.0505686,0,0,0,0,0,0,0,0,0,0,0,0,0,0,0,0,0,0,0,0,0
771,-0.7874148,-0.9727277,-0.098091364,-0.059955478,-0.17028944,0.060885187,-0.052223526,8.371924,5.2061915,0,0,0,0,0,0,0,0,0,0,0,0,0,0,0,0,0,0,0,0,0
772,-0.78953254,-0.97355753,-0.096338965,0.08918154,-0.038196653,0.06940731,0.05431845,8.337209,5.187038,0,0,0,0,0,0,0,0,0,0,0,0,0,0,0,0,0,0,0,0,0
773,-0.79242647,-0.97459614,-0.09542177,0.1445753,-0.057371415,-0.013683322,0.25184008,8.227076,4.984728,0,0,0,0,0,0,0,0,0,0,0,0,0,0,0,0,0,0,0,0,0
774,-0.7931007,-0.9764929,-0.09380106,0.16481532,0.015066568,-0.08718657,0.06628946,8.407838,4.607641,0,0,0,0,0,0,0,0,0,0,0,0,0,0,0,0,0,0,0,0,0
775,-0.7747067,-1.0019817,-0.054825816,0.15096688,0.18444361,-0.07759919,-0.1695394,8.519168,4.4017396,0,0,0,0,0,0,0,0,0,0,0,0,0,0,0,0,0,0,0,0,0
776,-0.7751543,-1.0029736,-0.053309448,0.024184965,0.17804323,-0.05841857,-0.10010756,8.344392,4.7680526,0,0,0,0,0,0,0,0,0,0,0,0,0,0,0,0,0,0,0,0,0
777,-0.77525514,-1.0036321,-0.05133201,0.04975131,0.10240946,-0.09570283,-0.22700025,8.411429,4.9787426,0,0,0,0,0,0,0,0,0,0,0,0,0,0,0,0,0,0,0,0,0
778,-0.7739435,-1.0051123,-0.04913312,0.04975131,0.044885185,-0.09676809,-0.27009588,8.579023,4.602853,0,0,0,0,0,0,0,0,0,0,0,0,0,0,0,0,0,0,0,0,0
779,-0.76494366,-1.0075748,-0.042643715,0.031641815,0.18763062,0.024672057,-1.2469301,9.677961,4.413711,0,0,0,0,0,0,0,0,0,0,0,0,0,0,0,0,0,0,0,0,0
780,-0.79602814,-1.0136559,-0.025128298,0.26173893,0.4006835,0.5242811,-3.144335,10.481216,8.1319065,0,0,0,0,0,0,0,0,0,0,0,0,0,0,0,0,0,0,0,0,0
781,-0.7812435,-1.0088803,-0.01531116,1.2662833,-0.4525933,1.591676,-5.1111717,11.14441,10.169372,0,0,0,0,0,0,0,0,0,0,0,0,0,0,0,0,0,0,0,0,0
782,-0.7633198,-1.0053761,-0.0049457373,1.9384651,-1.4400934,2.7805111,-4.4204445,10.101735,8.034941,0,0,0,0,0,0,0,0,0,0,0,0,0,0,0,0,0,0,0,0,0
783,-0.7370494,-1.0057034,0.0059072576,2.095059,-2.6140149,3.6518974,-2.706196,8.636484,4.5382094,0,0,0,0,0,0,0,0,0,0,0,0,0,0,0,0,0,0,0,0,0
784,-1.8496574,-0.9262429,-1.2731115,2.3975942,-2.228389,4.129136,0.8060978,7.307702,1.3227965,0,0,0,0,0,0,0,0,0,0,0,0,0,0,0,0,0,0,0,0,0
785,-1.8613162,-0.92142045,-1.2850744,2.365636,-1.2483459,3.6838553,6.7999816,5.817312,-2.1068976,0,0,0,0,0,0,0,0,0,0,0,0,0,0,0,0,0,0,0,0,0
786,-1.8729643,-0.91531646,-1.2945383,1.5507089,-0.06909811,2.365058,7.679851,5.535993,-1.4568717,0,0,0,0,0,0,0,0,0,0,0,0,0,0,0,0,0,0,0,0,0
787,-1.8839217,-0.91045046,-1.2937803,1.5368605,0.92372835,1.6971372,6.0386257,5.051167,1.9620483,0,0,0,0,0,0,0,0,0,0,0,0,0,0,0,0,0,0,0,0,0
788,-1.8966887,-0.9030381,-1.2980489,1.7914586,0.9727305,1.438278,7.1627035,4.300585,0.45609543,0,0,0,0,0,0,0,0,0,0,0,0,0,0,0,0,0,0,0,0,0
789,-2.2836945,-0.76190734,-1.4821635,1.2630875,0.7841787,1.1314818,8.235306,4.857237,-2.7569232,0,0,0,0,0,0,0,0,0,0,0,0,0,0,0,0,0,0,0,0,0
790,-2.2893772,-0.75606185,-1.4885397,0.3139369,0.73411125,0.75544345,9.001451,4.6920366,-2.1092918,0,0,0,0,0,0,0,0,0,0,0,0,0,0,0,0,0,0,0,0,0
791,-2.2949266,-0.74993724,-1.4922779,-0.4828809,0.09282208,0.18446173,9.55092,4.63697,-1.0031705,0,0,0,0,0,0,0,0,0,0,0,0,0,0,0,0,0,0,0,0,0
792,-2.3008106,-0.7432571,-1.4951336,-0.7736981,-0.20332143,-0.63685715,10.100389,4.470573,-0.6500258,0,0,0,0,0,0,0,0,0,0,0,0,0,0,0,0,0,0,0,0,0
793,-2.0643206,-0.9233108,-1.3796748,-1.112448,-0.497332,-1.7585822,9.90167,4.4645877,-1.4903905,0,0,0,0,0,0,0,0,0,0,0,0,0,0,0,0,0,0,0,0,0
794,-2.0722306,-0.9177472,-1.3833854,-1.4245704,-0.3812182,-2.869653,7.7109756,5.8029466,0.04309563,0,0,0,0,0,0,0,0,0,0,0,0,0,0,0,0,0,0,0,0,0
795,-2.0793722,-0.91277283,-1.3784744,-1.708996,-0.3002581,-3.4267862,6.3582516,5.5383873,2.9388826,0,0,0,0,0,0,0,0,0,0,0,0,0,0,0,0,0,0,0,0,0
796,-2.081696,-0.9127654,-1.3745288,-1.6035348,-0.31197602,-4.248105,4.1867104,5.8508306,1.7190368,0,0,0,0,0,0,0,0,0,0,0,0,0,0,0,0,0,0,0,0,0
797,-2.0520713,-0.9205567,-1.3521641,-0.30923855,2.041193,-4.549575,0.5690718,8.160038,2.171541,0,0,0,0,0,0,0,0,0,0,0,0,0,0,0,0,0,0,0,0,0
798,-0.8487786,-1.3134357,0.101639755,-0.81204337,0.9546234,-4.331196,-2.2165818,8.308478,5.792771,0,0,0,0,0,0,0,0,0,0,0,0,0,0,0,0,0,0,0,0,0
799,-0.8019829,-1.3071971,0.11884145,-0.33800068,0.18763301,-3.5556834,-6.433968,12.257714,4.4879313,0,0,0,0,0,0,0,0,0,0,0,0,0,0,0,0,0,0,0,0,0
800,-0.7696681,-1.3025947,0.13506803,0.23085052,1.0057561,-1.9695046,-5.1303253,11.890204,3.8247373,0,0,0,0,0,0,0,0,0,0,0,0,0,0,0,0,0,0,0,0,0
801,-0.752761,-1.2979975,0.14618008,-0.6501232,-0.5953363,-0.7369936,-3.679439,10.621277,4.4520183,0,0,0,0,0,0,0,0,0,0,0,0,0,0,0,0,0,0,0,0,0
802,-0.6735294,-1.2158778,0.10610391,-0.3731544,-0.6741659,-0.11700971,-1.6192285,9.226655,3.2944214,0,0,0,0,0,0,0,0,0,0,0,0,0,0,0,0,0,0,0,0,0
803,-0.66762435,-1.2184554,0.11152622,-0.010964501,0.041691788,-0.1319234,-0.74414784,8.7849245,1.8782512,0,0,0,0,0,0,0,0,0,0,0,0,0,0,0,0,0,0,0,0,0
804,-0.655769,-1.2199514,0.121698916,-0.09938145,0.45075333,-0.118074976,-1.4995184,9.056666,2.099715,0,0,0,0,0,0,0,0,0,0,0,0,0,0,0,0,0,0,0,0,0
805,-0.6477996,-1.2195563,0.12963633,-0.23893109,0.45607966,0.11947899,-1.7413328,9.042301,3.05141,0,0,0,0,0,0,0,0,0,0,0,0,0,0,0,0,0,0,0,0,0
806,-0.6430914,-1.2198675,0.13481335,-0.451984,-0.15218633,0.30909607,-1.2146084,9.190742,2.967613,0,0,0,0,0,0,0,0,0,0,0,0,0,0,0,0,0,0,0,0,0
807,-0.76871693,-1.1605469,-0.007563483,-0.49246404,-0.1383379,0.27287707,-0.4580407,8.963293,2.814384,0,0,0,0,0,0,0,0,0,0,0,0,0,0,0,0,0,0,0,0,0
808,-0.76917785,-1.1598815,-0.0032274332,-0.30604276,0.19295934,0.11095688,-0.8734347,8.850765,4.1132383,0,0,0,0,0,0,0,0,0,0,0,0,0,0,0,0,0,0,0,0,0
809,-0.7674201,-1.1603885,0.0011810872,-0.27407655,-0.028610872,-0.042444397,-0.8255507,9.438541,3.74094,0,0,0,0,0,0,0,0,0,0,0,0,0,0,0,0,0,0,0,0,0
810,-0.76046735,-1.162203,0.008194783,-0.42747465,-0.2608385,-0.12233923,-1.1260229,9.869498,3.0669725,0,0,0,0,0,0,0,0,0,0,0,0,0,0,0,0,0,0,0,0,0
811,-0.7340738,-1.1063479,0.026681328,-0.35716718,0.061936606,-0.015812784,-1.5031098,9.824008,4.27365,0,0,0,0,0,0,0,0,0,0,0,0,0,0,0,0,0,0,0,0,0
812,-0.73496056,-1.1061537,0.030358365,0.005022722,-0.0019792614,0.0683431,-0.97518826,9.09258,4.5633483,0,0,0,0,0,0,0,0,0,0,0,0,0,0,0,0,0,0,0,0,0
813,-0.73217314,-1.1078031,0.0344267,0.07959123,-0.19053106,-0.056292832,-0.84949267,9.123704,3.5673606,0,0,0,0,0,0,0,0,0,0,0,0,0,0,0,0,0,0,0,0,0
814,-0.72272074,-1.110085,0.042514414,-0.018413095,-0.16709524,-0.032857016,-1.4815619,9.585785,3.156755,0,0,0,0,0,0,0,0,0,0,0,0,0,0,0,0,0,0,0,0,0
815,-0.7205855,-1.11054,0.046797257,-0.037587855,-0.063764594,0.06408205,-1.0697592,8.999206,4.0761285,0,0,0,0,0,0,0,0,0,0,0,0,0,0,0,0,0,0,0,0,0
816,-0.737486,-1.1097078,0.024636308,0.116875485,-0.11489729,-0.0019643477,-0.94526076,8.944139,3.9863458,0,0,0,0,0,0,0,0,0,0,0,0,0,0,0,0,0,0,0,0,0
817,-0.731687,-1.1118665,0.030442353,0.24683775,0.001216532,-0.0072906697,-1.0350434,9.065046,3.1771057,0,0,0,0,0,0,0,0,0,0,0,0,0,0,0,0,0,0,0,0,0
818,-0.72457516,-1.1148214,0.036742657,0.19783558,0.15035355,-0.021139108,-0.9943419,9.129689,2.7629087,0,0,0,0,0,0,0,0,0,0,0,0,0,0,0,0,0,0,0,0,0
819,-0.7210078,-1.1164951,0.041021593,0.050829094,0.07152399,-0.03179175,-0.8387188,8.658031,3.2752678,0,0,0,0,0,0,0,0,0,0,0,0,0,0,0,0,0,0,0,0,0
820,-0.68539405,-1.1022904,0.056333322,-0.21229123,-0.15963839,-0.08505497,-1.2600983,9.261371,2.8993783,0,0,0,0,0,0,0,0,0,0,0,0,0,0,0,0,0,0,0,0,0
821,-0.678352,-1.1043457,0.06313359,-0.3891251,-0.13620257,0.03105885,-1.3822026,9.348759,3.3028011,0,0,0,0,0,0,0,0,0,0,0,0,0,0,0,0,0,0,0,0,0
822,-0.6762205,-1.1050735,0.06728869,-0.31881768,-0.10104885,0.19191378,-1.102081,8.978855,3.9683893,0,0,0,0,0,0,0,0,0,0,0,0,0,0,0,0,0,0,0,0,0
823,-0.6740237,-1.1066041,0.07084486,-0.13452692,0.065132394,0.18445693,-0.888997,8.933365,3.5541923,0,0,0,0,0,0,0,0,0,0,0,0,0,0,0,0,0,0,0,0,0
824,-0.7536322,-1.1149106,0.05550979,0.040176447,0.42306125,0.29844022,-1.9376574,9.892242,4.0904937,0,0,0,0,0,0,0,0,0,0,0,0,0,0,0,0,0,0,0,0,0
825,-0.7485807,-1.1135646,0.061762303,0.36401683,0.47099814,0.668087,-1.9651906,9.467272,5.094861,0,0,0,0,0,0,0,0,0,0,0,0,0,0,0,0,0,0,0,0,0
