nr,fusedX,fusedY,fusedZ,gyroX,gyroY,gyroZ,accX,accY,accZ,q,w,e,r,t,z,u,i,o,p,a,s,d,f,g,h,j,k,l,y
0,0.67097545,-0.91108155,-0.8053669,-0.43092504,0.31951487,-0.12840085,4.423587,7.6440873,4.3791447,0,0,0,0,0,0,0,0,0,0,0,0,0,0,0,0,0,0,0,0,0
1,0.6904832,-0.9052513,-0.78374505,-0.3808576,0.20659685,-0.12627032,4.3469725,7.5447283,3.8847418,0,0,0,0,0,0,0,0,0,0,0,0,0,0,0,0,0,0,0,0,0
2,0.7117283,-0.8979225,-0.7536347,-0.5608873,0.49208772,-0.17633775,3.962703,7.227496,3.7710173,0,0,0,0,0,0,0,0,0,0,0,0,0,0,0,0,0,0,0,0,0
3,0.7379035,-0.8860392,-0.71752405,-0.81974655,0.67744374,-0.16355458,3.913622,7.367557,4.7670054,0,0,0,0,0,0,0,0,0,0,0,0,0,0,0,0,0,0,0,0,0
4,0.7797772,-0.86841947,-0.6706838,-0.77394015,0.440955,-0.17953354,3.5185788,6.95336,5.3272486,0,0,0,0,0,0,0,0,0,0,0,0,0,0,0,0,0,0,0,0,0
5,0.80664116,-0.85585517,-0.64549905,-0.61841154,0.28436115,-0.13798822,3.7723641,6.973711,5.591808,0,0,0,0,0,0,0,0,0,0,0,0,0,0,0,0,0,0,0,0,0
6,0.8279967,-0.84676856,-0.6232191,-0.41494605,0.122440964,-0.27540734,4.0010104,7.2023573,4.8927007,0,0,0,0,0,0,0,0,0,0,0,0,0,0,0,0,0,0,0,0,0
7,0.84203476,-0.842398,-0.60442847,-0.6173463,0.39727917,-0.2796684,3.7113118,7.1233487,4.506037,0,0,0,0,0,0,0,0,0,0,0,0,0,0,0,0,0,0,0,0,0
8,0.88332665,-0.8245066,-0.5633243,-1.039191,0.2683822,-0.42454436,3.4120367,6.7809777,5.3906946,0,0,0,0,0,0,0,0,0,0,0,0,0,0,0,0,0,0,0,0,0
9,0.9242201,-0.80371207,-0.5337947,-0.86449087,-0.11512339,-0.34144628,3.2013469,6.6085954,5.3068976,0,0,0,0,0,0,0,0,0,0,0,0,0,0,0,0,0,0,0,0,0
10,0.9510086,-0.790716,-0.51754403,-0.88260037,-0.15773398,-0.3883179,2.3777416,6.18961,5.1393037,0,0,0,0,0,0,0,0,0,0,0,0,0,0,0,0,0,0,0,0,0
11,0.9973125,-0.7665114,-0.49603084,-1.0551732,-0.34948155,-0.41708004,2.6231472,5.8292828,6.1628246,0,0,0,0,0,0,0,0,0,0,0,0,0,0,0,0,0,0,0,0,0
12,1.0182478,-0.75604296,-0.48624963,-0.59178317,-0.08849178,-0.31801045,2.5561097,5.7825956,4.5227966,0,0,0,0,0,0,0,0,0,0,0,0,0,0,0,0,0,0,0,0,0
13,1.0353895,-0.73574126,-0.4700602,-1.0146931,0.35146242,-0.003757454,2.7584198,4.5256395,4.277391,0,0,0,0,0,0,0,0,0,0,0,0,0,0,0,0,0,0,0,0,0
14,1.0729239,-0.70114225,-0.42984787,-1.7891403,1.1759771,-0.26368198,1.9228432,3.709217,6.191555,0,0,0,0,0,0,0,0,0,0,0,0,0,0,0,0,0,0,0,0,0
15,1.1344328,-0.62353396,-0.3610582,-3.342296,1.3602679,-0.06980385,2.3693619,3.5164838,7.3575315,0,0,0,0,0,0,0,0,0,0,0,0,0,0,0,0,0,0,0,0,0
16,1.1966741,-0.49641362,-0.26632676,-4.008086,2.0484288,-0.06767332,0.76883805,3.342904,10.333524,0,0,0,0,0,0,0,0,0,0,0,0,0,0,0,0,0,0,0,0,0
17,1.2310116,-0.40853772,-0.20876706,-2.8991458,1.5765165,-0.18591768,0.5868787,3.0627825,11.376199,0,0,0,0,0,0,0,0,0,0,0,0,0,0,0,0,0,0,0,0,0
18,1.2551689,-0.340224,-0.14250909,-1.5366727,1.6521503,0.020743627,-0.32291797,2.9825768,12.897715,0,0,0,0,0,0,0,0,0,0,0,0,0,0,0,0,0,0,0,0,0
19,1.2551343,-0.3083639,-0.111222655,-0.6706127,0.5421448,0.6204875,-0.43065703,2.271499,12.112416,0,0,0,0,0,0,0,0,0,0,0,0,0,0,0,0,0,0,0,0,0
20,1.2260176,-0.30541688,-0.1257971,0.6492499,-0.4623996,1.009309,1.8031331,2.4642322,10.309582,0,0,0,0,0,0,0,0,0,0,0,0,0,0,0,0,0,0,0,0,0
21,1.1700608,-0.34639347,-0.13858846,1.7123837,0.5698416,1.0721596,3.9471407,4.575918,11.323526,0,0,0,0,0,0,0,0,0,0,0,0,0,0,0,0,0,0,0,0,0
22,1.1205567,-0.3760246,-0.14943117,1.0050483,-0.1268413,1.9786997,1.4463971,4.124611,9.6427965,0,0,0,0,0,0,0,0,0,0,0,0,0,0,0,0,0,0,0,0,0
23,1.0370423,-0.3785785,-0.20894049,0.071876585,-1.358287,2.2993443,1.8127099,3.3237505,9.088539,0,0,0,0,0,0,0,0,0,0,0,0,0,0,0,0,0,0,0,0,0
24,0.9755607,-0.34837836,-0.27292693,-1.1734176,-1.6853231,1.432219,3.6706104,2.130241,7.4640737,0,0,0,0,0,0,0,0,0,0,0,0,0,0,0,0,0,0,0,0,0
25,0.9863699,-0.30189094,-0.293037,-1.282069,0.1810377,-0.63973284,1.7157447,3.0029275,10.090512,0,0,0,0,0,0,0,0,0,0,0,0,0,0,0,0,0,0,0,0,0
26,1.0223281,-0.30182344,-0.26712793,0.5874702,0.19808193,-1.0850134,-0.6485294,3.318962,9.738565,0,0,0,0,0,0,0,0,0,0,0,0,0,0,0,0,0,0,0,0,0
27,1.0435954,-0.34668374,-0.2089612,1.0487297,2.4969225,-0.53214115,-1.616984,3.6888664,6.22268,0,0,0,0,0,0,0,0,0,0,0,0,0,0,0,0,0,0,0,0,0
28,1.0350187,-0.35881793,-0.15971752,-0.39470363,0.46120223,0.0569501,3.6454713,6.4697313,8.873061,0,0,0,0,0,0,0,0,0,0,0,0,0,0,0,0,0,0,0,0,0
29,1.0164906,-0.33518457,-0.16831358,-0.5267964,0.04681438,1.131802,1.7313071,1.8130093,9.230994,0,0,0,0,0,0,0,0,0,0,0,0,0,0,0,0,0,0,0,0,0
30,0.9887341,-0.3300189,-0.17445995,0.45005104,0.54748863,0.805831,2.8589761,1.5316905,8.244583,0,0,0,0,0,0,0,0,0,0,0,0,0,0,0,0,0,0,0,0,0
31,0.98392296,-0.32808155,-0.16451056,0.12727593,0.738171,0.2188703,1.9024925,1.4598645,11.583298,0,0,0,0,0,0,0,0,0,0,0,0,0,0,0,0,0,0,0,0,0
32,0.98113924,-0.34546992,-0.14777152,0.93155056,0.5858382,-0.021879466,1.5218145,3.7942111,9.421333,0,0,0,0,0,0,0,0,0,0,0,0,0,0,0,0,0,0,0,0,0
33,0.978297,-0.3748182,-0.12618716,1.4183764,1.2473674,-0.026140524,1.587655,2.8389246,10.0725565,0,0,0,0,0,0,0,0,0,0,0,0,0,0,0,0,0,0,0,0,0
34,0.9791915,-0.42559564,-0.086910866,1.7581958,0.97572494,-0.11988379,0.78679454,3.41473,10.2796545,0,0,0,0,0,0,0,0,0,0,0,0,0,0,0,0,0,0,0,0,0
35,0.9755463,-0.484422,-0.056172546,1.7326294,0.9096786,0.14004073,0.4683657,4.136582,8.652795,0,0,0,0,0,0,0,0,0,0,0,0,0,0,0,0,0,0,0,0,0
36,0.96885806,-0.5168889,-0.043167092,1.0987971,0.44628853,0.14217125,0.65870476,3.743933,8.120085,0,0,0,0,0,0,0,0,0,0,0,0,0,0,0,0,0,0,0,0,0
37,0.96385187,-0.54241854,-0.045501743,0.522489,-0.33028924,-0.014422615,0.02064999,4.929063,7.258172,0,0,0,0,0,0,0,0,0,0,0,0,0,0,0,0,0,0,0,0,0
38,0.9714772,-0.5491287,-0.05344518,0.3232846,-0.62323695,-0.024009995,-1.1884218,3.8684313,8.817994,0,0,0,0,0,0,0,0,0,0,0,0,0,0,0,0,0,0,0,0,0
39,0.96919566,-0.56440663,-0.07789294,0.4212889,-0.518841,0.017535318,0.41090485,6.5259953,7.1468415,0,0,0,0,0,0,0,0,0,0,0,0,0,0,0,0,0,0,0,0,0
40,0.956488,-0.5781646,-0.09469284,0.38400465,-0.2535902,0.3115483,-0.039205052,4.8380833,7.484424,0,0,0,0,0,0,0,0,0,0,0,0,0,0,0,0,0,0,0,0,0
41,0.9425595,-0.58854604,-0.1036785,0.44685525,-0.07462577,0.39463893,0.22176293,5.7395,8.0662155,0,0,0,0,0,0,0,0,0,0,0,0,0,0,0,0,0,0,0,0,0
42,0.9231341,-0.60224354,-0.11377261,0.50332415,-0.067137495,0.45959768,0.103249945,5.45459,8.396615,0,0,0,0,0,0,0,0,0,0,0,0,0,0,0,0,0,0,0,0,0
43,0.90557444,-0.6125678,-0.1275976,0.49693254,-0.38884735,0.6119305,0.42646718,5.885546,8.717438,0,0,0,0,0,0,0,0,0,0,0,0,0,0,0,0,0,0,0,0,0
44,0.8710946,-0.6268207,-0.16325712,0.62476426,-0.55076754,0.7472191,1.3015479,5.1996074,7.875876,0,0,0,0,0,0,0,0,0,0,0,0,0,0,0,0,0,0,0,0,0
45,0.84367603,-0.6420038,-0.18728282,0.87403613,-0.32280096,0.66306317,1.3374609,5.467758,7.505972,0,0,0,0,0,0,0,0,0,0,0,0,0,0,0,0,0,0,0,0,0
46,0.8074761,-0.65986454,-0.21402308,0.8239687,-0.34091043,0.7248485,2.1359272,5.0320134,6.620117,0,0,0,0,0,0,0,0,0,0,0,0,0,0,0,0,0,0,0,0,0
47,0.7606682,-0.6801965,-0.25481424,0.55978316,-0.3696726,0.35520178,2.8470051,5.149329,6.4249897,0,0,0,0,0,0,0,0,0,0,0,0,0,0,0,0,0,0,0,0,0
48,0.74172246,-0.6910105,-0.27173862,0.61091584,-0.2919083,0.2614585,2.6698341,5.549161,7.007978,0,0,0,0,0,0,0,0,0,0,0,0,0,0,0,0,0,0,0,0,0
49,0.70791566,-0.7092498,-0.29874408,0.5427389,-0.2919083,0.17836788,3.28275,5.632958,5.1381063,0,0,0,0,0,0,0,0,0,0,0,0,0,0,0,0,0,0,0,0,0
50,0.6860552,-0.7159999,-0.31042728,0.14006896,-0.020265857,-0.05172924,3.3485904,5.4462104,5.310489,0,0,0,0,0,0,0,0,0,0,0,0,0,0,0,0,0,0,0,0,0
51,0.6896505,-0.7173286,-0.30549648,-0.10920292,0.061759505,-0.22323681,2.0904374,5.940613,6.2550015,0,0,0,0,0,0,0,0,0,0,0,0,0,0,0,0,0,0,0,0,0
52,0.6959411,-0.7169521,-0.2997434,-0.15607455,-0.027722707,-0.18062624,1.7624317,6.1381345,6.3136597,0,0,0,0,0,0,0,0,0,0,0,0,0,0,0,0,0,0,0,0,0
53,0.7036872,-0.71326196,-0.29556063,-0.22318621,-0.111878596,-0.18382204,1.9360113,6.095039,6.9995985,0,0,0,0,0,0,0,0,0,0,0,0,0,0,0,0,0,0,0,0,0
54,0.71681035,-0.70408183,-0.29685843,-0.30840737,-0.327062,-0.18275677,2.3262663,6.0387754,7.165995,0,0,0,0,0,0,0,0,0,0,0,0,0,0,0,0,0,0,0,0,0
55,0.72730225,-0.6971163,-0.29752517,-0.31479895,-0.234384,-0.23069367,2.2891562,5.9442043,7.401824,0,0,0,0,0,0,0,0,0,0,0,0,0,0,0,0,0,0,0,0,0
56,0.7448098,-0.6916774,-0.291571,-0.082571305,-0.07672487,-0.16890833,1.635539,6.081871,8.278102,0,0,0,0,0,0,0,0,0,0,0,0,0,0,0,0,0,0,0,0,0
57,0.7487844,-0.6921345,-0.2931968,0.09958891,-0.14383653,-0.075165056,2.3262663,5.7909756,7.49041,0,0,0,0,0,0,0,0,0,0,0,0,0,0,0,0,0,0,0,0,0
58,0.7512648,-0.69478446,-0.2953795,0.14219949,-0.10229122,-0.22217155,2.5010428,5.715558,7.2378216,0,0,0,0,0,0,0,0,0,0,0,0,0,0,0,0,0,0,0,0,0
59,0.7644481,-0.7052859,-0.2908689,0.18054794,-0.118273646,-0.36704484,1.8881273,6.083068,6.7769375,0,0,0,0,0,0,0,0,0,0,0,0,0,0,0,0,0,0,0,0,0
60,0.76814467,-0.71054727,-0.2898757,0.06976044,-0.2333222,-0.28928053,1.9144635,6.3272767,6.146065,0,0,0,0,0,0,0,0,0,0,0,0,0,0,0,0,0,0,0,0,0
61,0.78208166,-0.7120843,-0.28903532,-0.118791364,-0.13638315,-0.25199628,2.0269911,6.1884127,6.2933087,0,0,0,0,0,0,0,0,0,0,0,0,0,0,0,0,0,0,0,0,0
62,0.7924037,-0.71000135,-0.2833558,-0.1773809,-0.02026932,-0.26584473,1.7001824,6.085462,6.7793317,0,0,0,0,0,0,0,0,0,0,0,0,0,0,0,0,0,0,0,0,0
63,0.80694515,-0.70751303,-0.27462256,-0.08363764,-0.03731355,-0.19021095,1.4200609,6.3607955,7.540688,0,0,0,0,0,0,0,0,0,0,0,0,0,0,0,0,0,0,0,0,0
64,0.8129594,-0.7075327,-0.27318442,-0.0016122777,-0.12146944,-0.11351191,1.6977882,6.2099605,7.270143,0,0,0,0,0,0,0,0,0,0,0,0,0,0,0,0,0,0,0,0,0
65,0.8199028,-0.7081574,-0.27255633,0.01223616,-0.074597806,-0.1230993,1.7720085,6.1261635,7.326407,0,0,0,0,0,0,0,0,0,0,0,0,0,0,0,0,0,0,0,0,0
66,0.8240061,-0.7095296,-0.2718814,0.056977265,-0.08525045,-0.10818559,1.9216461,6.1824274,7.1935287,0,0,0,0,0,0,0,0,0,0,0,0,0,0,0,0,0,0,0,0,0
67,0.8277312,-0.7123184,-0.27179334,0.072956234,-0.053292517,-0.09327189,1.8737621,6.091448,7.0031896,0,0,0,0,0,0,0,0,0,0,0,0,0,0,0,0,0,0,0,0,0
68,0.8295706,-0.7152732,-0.27303028,0.04845515,-0.117208384,-0.08581504,2.0018518,6.0902505,6.7075057,0,0,0,0,0,0,0,0,0,0,0,0,0,0,0,0,0,0,0,0,0
69,0.8315022,-0.715454,-0.27443945,-0.008003864,-0.07353254,-0.09327189,2.1538837,6.007651,6.888268,0,0,0,0,0,0,0,0,0,0,0,0,0,0,0,0,0,0,0,0,0
70,0.8369827,-0.7165535,-0.2725202,0.03354145,-0.023465112,-0.15399197,1.944391,6.0567317,6.9876275,0,0,0,0,0,0,0,0,0,0,0,0,0,0,0,0,0,0,0,0,0
71,0.8427354,-0.7181839,-0.2694078,-5.470133E-4,-0.039444078,-0.13801299,1.7097592,6.2422824,7.0019927,0,0,0,0,0,0,0,0,0,0,0,0,0,0,0,0,0,0,0,0,0
72,0.8479121,-0.718844,-0.2676331,-0.0058733355,-0.0628799,-0.1049898,1.8127099,6.1824274,6.94932,0,0,0,0,0,0,0,0,0,0,0,0,0,0,0,0,0,0,0,0,0
73,0.8518363,-0.7195138,-0.26616457,0.00264878,-0.04263987,-0.086880304,1.6511014,6.333262,7.005584,0,0,0,0,0,0,0,0,0,0,0,0,0,0,0,0,0,0,0,0,0
74,0.8542907,-0.7201001,-0.26622334,-0.0037428066,-0.07672834,-0.019768644,1.6977882,6.2446766,6.8810854,0,0,0,0,0,0,0,0,0,0,0,0,0,0,0,0,0,0,0,0,0
75,0.85513157,-0.71961755,-0.2675827,-0.027174097,-0.03943023,-0.016582971,1.8294693,6.1860185,6.9732623,0,0,0,0,0,0,0,0,0,0,0,0,0,0,0,0,0,0,0,0,0
76,0.8565424,-0.718994,-0.26731917,0.0037185717,0.0021150825,-6.0400495E-4,1.8294693,6.1596823,6.9888244,0,0,0,0,0,0,0,0,0,0,0,0,0,0,0,0,0,0,0,0,0
77,0.85743827,-0.7182993,-0.26767778,-0.019717246,-0.02984285,0.006852846,1.860594,6.067506,7.0211463,0,0,0,0,0,0,0,0,0,0,0,0,0,0,0,0,0,0,0,0,0
78,0.85888827,-0.7172023,-0.26863065,-0.005868808,-0.05434393,-0.013387178,1.9767128,6.067506,7.204303,0,0,0,0,0,0,0,0,0,0,0,0,0,0,0,0,0,0,0,0,0
79,0.8605365,-0.7177404,-0.2702519,0.045263883,-0.06073552,-0.030431408,2.003049,6.072294,7.0893807,0,0,0,0,0,0,0,0,0,0,0,0,0,0,0,0,0,0,0,0,0
80,0.86262256,-0.71845657,-0.2711217,0.02502386,-0.07138816,-0.051736698,1.8941128,6.0758853,7.0019927,0,0,0,0,0,0,0,0,0,0,0,0,0,0,0,0,0,0,0,0,0
81,0.86542803,-0.7186782,-0.27209532,0.004783836,-0.07351869,-0.03256194,1.9072809,6.2099605,7.127688,0,0,0,0,0,0,0,0,0,0,0,0,0,0,0,0,0,0,0,0,0
82,0.8663566,-0.71952647,-0.27420843,0.04100283,-0.075649224,-0.034692466,1.9874867,6.0890536,6.902633,0,0,0,0,0,0,0,0,0,0,0,0,0,0,0,0,0,0,0,0,0
83,0.8670962,-0.7206659,-0.27484584,0.03461124,-0.042626023,-0.059193548,1.9503765,6.1141925,6.772149,0,0,0,0,0,0,0,0,0,0,0,0,0,0,0,0,0,0,0,0,0
84,0.8687735,-0.7213721,-0.2743298,0.006914365,-0.03623444,-0.051736698,1.8857331,6.18123,6.8571434,0,0,0,0,0,0,0,0,0,0,0,0,0,0,0,0,0,0,0,0,0
85,0.8698794,-0.72176945,-0.27498132,5.2277854E-4,-0.045821816,-0.015517707,1.908478,6.1608796,6.7278566,0,0,0,0,0,0,0,0,0,0,0,0,0,0,0,0,0,0,0,0,0
86,0.87061757,-0.72158396,-0.27459493,-0.0048035434,0.003180347,-0.021909293,1.8881273,6.2207346,6.9732623,0,0,0,0,0,0,0,0,0,0,0,0,0,0,0,0,0,0,0,0,0
87,0.87223446,-0.72111535,-0.27400774,-0.012260394,-0.03197338,-0.010191385,1.8498201,6.203975,7.127688,0,0,0,0,0,0,0,0,0,0,0,0,0,0,0,0,0,0,0,0,0
88,0.87344414,-0.72022825,-0.27506325,-0.011195131,-0.044756554,-0.011256649,1.8941128,6.201581,7.0271316,0,0,0,0,0,0,0,0,0,0,0,0,0,0,0,0,0,0,0,0,0
89,0.8743737,-0.7198995,-0.27529362,0.017567009,-0.0021459751,0.001526524,1.9048867,6.141726,7.0833955,0,0,0,0,0,0,0,0,0,0,0,0,0,0,0,0,0,0,0,0,0
90,0.8733786,-0.7202593,-0.27598742,0.023958595,-0.008537562,-0.005930327,2.0533273,6.081871,6.914604,0,0,0,0,0,0,0,0,0,0,0,0,0,0,0,0,0,0,0,0,0
91,0.87327445,-0.720592,-0.27622026,0.0026533073,-0.02771232,-0.03256194,1.9407997,6.169259,6.864326,0,0,0,0,0,0,0,0,0,0,0,0,0,0,0,0,0,0,0,0,0
92,0.87505525,-0.7203246,-0.27590856,-0.004798217,-0.013846307,-0.015529958,1.8821418,6.1165867,7.007978,0,0,0,0,0,0,0,0,0,0,0,0,0,0,0,0,0,0,0,0,0
93,0.8761069,-0.71993923,-0.27600104,0.007984956,-0.020237893,-0.007007842,1.9297266,6.1662664,7.1040454,0,0,0,0,0,0,0,0,0,0,0,0,0,0,0,0,0,0,0,0,0
94,0.8764249,-0.720189,-0.27623764,0.0143765425,-0.008519985,-0.010203635,1.9261353,6.1866174,7.0322194,0,0,0,0,0,0,0,0,0,0,0,0,0,0,0,0,0,0,0,0,0
95,0.87643635,-0.72070175,-0.27660137,0.0335513,-0.020237893,4.4900895E-4,1.9237411,6.1207767,6.9376483,0,0,0,0,0,0,0,0,0,0,0,0,0,0,0,0,0,0,0,0,0
96,0.87553746,-0.7207669,-0.27794573,-0.0058634817,-0.0319558,0.013232182,2.005144,6.145916,6.935254,0,0,0,0,0,0,0,0,0,0,0,0,0,0,0,0,0,0,0,0,0
97,0.8752784,-0.71999836,-0.27911118,-0.006928746,-0.040477917,-0.008073106,2.0494366,6.0561333,6.9364514,0,0,0,0,0,0,0,0,0,0,0,0,0,0,0,0,0,0,0,0,0
98,0.87591887,-0.719543,-0.27934474,0.007984956,0.00958951,-0.019791014,2.03148,6.063316,7.0142627,0,0,0,0,0,0,0,0,0,0,0,0,0,0,0,0,0,0,0,0,0
99,0.87627536,-0.7204065,-0.2784027,0.025029186,0.0074589816,-0.015529958,1.9859903,6.1327477,6.9520135,0,0,0,0,0,0,0,0,0,0,0,0,0,0,0,0,0,0,0,0,0
100,0.87742,-0.7202918,-0.2779459,-0.009059275,-0.02662948,-0.022986809,1.8507179,6.172252,6.983138,0,0,0,0,0,0,0,0,0,0,0,0,0,0,0,0,0,0,0,0,0
101,0.87862194,-0.719503,-0.2781299,-0.021842448,-0.040477917,4.4900895E-4,1.8267759,6.1926026,7.048979,0,0,0,0,0,0,0,0,0,0,0,0,0,0,0,0,0,0,0,0,0
102,0.8778745,-0.7190643,-0.27910978,0.007984956,-0.013846307,0.028145883,1.9021933,6.1938,6.9304657,0,0,0,0,0,0,0,0,0,0,0,0,0,0,0,0,0,0,0,0,0
103,0.87646633,-0.7189346,-0.27990368,0.007984956,0.0021326593,0.026015354,1.9955671,6.0980315,6.840683,0,0,0,0,0,0,0,0,0,0,0,0,0,0,0,0,0,0,0,0,0
104,0.87581986,-0.7179608,-0.28048745,-0.02716877,-0.0053241914,0.022819562,2.0087352,6.089652,6.955605,0,0,0,0,0,0,0,0,0,0,0,0,0,0,0,0,0,0,0,0,0
105,0.8766044,-0.71617293,-0.28091303,-0.037821416,-0.0170421,0.016427975,1.9752164,6.1100025,7.0932713,0,0,0,0,0,0,0,0,0,0,0,0,0,0,0,0,0,0,0,0,0
106,0.87661266,-0.71492577,-0.2820103,-0.0058634817,-0.021303158,0.02708062,2.1152773,6.0681043,7.072921,0,0,0,0,0,0,0,0,0,0,0,0,0,0,0,0,0,0,0,0,0
107,0.87731403,-0.7145775,-0.2824746,0.019702865,0.006393717,-0.013399429,2.0769699,6.0046577,7.0813003,0,0,0,0,0,0,0,0,0,0,0,0,0,0,0,0,0,0,0,0,0
108,0.87766343,-0.71560216,-0.28193414,0.03781236,0.004263188,-0.018725751,2.0015526,6.0728927,6.8825817,0,0,0,0,0,0,0,0,0,0,0,0,0,0,0,0,0,0,0,0,0
109,0.87833726,-0.71556497,-0.28158465,-0.03462562,-0.020237893,-0.009138371,1.9297266,6.160281,6.9484224,0,0,0,0,0,0,0,0,0,0,0,0,0,0,0,0,0,0,0,0,0
110,0.87978595,-0.71439934,-0.28150865,-0.014385597,-0.020237893,0.0015142733,1.8854338,6.1566896,7.123199,0,0,0,0,0,0,0,0,0,0,0,0,0,0,0,0,0,0,0,0,0
111,0.8797399,-0.71442634,-0.28180787,0.035681833,0.015981097,0.020689033,1.9560628,6.0836663,7.051373,0,0,0,0,0,0,0,0,0,0,0,0,0,0,0,0,0,0,0,0,0
112,0.8787258,-0.7150191,-0.28241876,0.053791326,0.004263188,0.0047100666,2.1140802,5.9878983,6.920889,0,0,0,0,0,0,0,0,0,0,0,0,0,0,0,0,0,0,0,0,0
113,0.87835217,-0.716038,-0.28219324,0.027159715,0.015981097,-6.1625545E-4,1.9991584,6.1423244,6.8945527,0,0,0,0,0,0,0,0,0,0,0,0,0,0,0,0,0,0,0,0,0
114,0.87700176,-0.7157234,-0.28322506,-0.009059275,-0.01917263,-0.0027467844,2.1730373,5.9775734,6.7896566,0,0,0,0,0,0,0,0,0,0,0,0,0,0,0,0,0,0,0,0,0
115,0.87761843,-0.7155605,-0.28254884,-0.020777185,0.02876427,-0.03576998,1.9276316,6.1343937,6.814796,0,0,0,0,0,0,0,0,0,0,0,0,0,0,0,0,0,0,0,0,0
116,0.88045734,-0.71352774,-0.28053725,-0.05166985,0.0021326593,0.01962377,1.8091186,6.1882634,7.303213,0,0,0,0,0,0,0,0,0,0,0,0,0,0,0,0,0,0,0,0,0
117,0.8816464,-0.7117437,-0.2817962,-0.001602424,-0.07137059,0.02495009,1.9815012,6.044611,7.342717,0,0,0,0,0,0,0,0,0,0,0,0,0,0,0,0,0,0,0,0,0
118,0.8818643,-0.7118049,-0.28435478,0.06231344,-0.051130563,0.013232182,1.9922751,6.070947,7.2385697,0,0,0,0,0,0,0,0,0,0,0,0,0,0,0,0,0,0,0,0,0
119,0.8808353,-0.71385795,-0.28678963,0.09320611,-0.049000032,0.021754298,2.0473418,6.07813,7.136816,0,0,0,0,0,0,0,0,0,0,0,0,0,0,0,0,0,0,0,0,0
120,0.8793533,-0.71565735,-0.28960776,0.08894505,-0.09267587,0.0036448021,2.13473,6.0338373,6.911761,0,0,0,0,0,0,0,0,0,0,0,0,0,0,0,0,0,0,0,0,0
121,0.8772166,-0.7177873,-0.29332462,0.03994289,-0.07456638,-0.017660486,2.1383214,6.082918,6.6065,0,0,0,0,0,0,0,0,0,0,0,0,0,0,0,0,0,0,0,0,0
122,0.8766371,-0.71831787,-0.29431733,0.011180749,-0.022368422,-0.015529958,2.061707,6.1092544,6.69748,0,0,0,0,0,0,0,0,0,0,0,0,0,0,0,0,0,0,0,0,0
123,0.8767015,-0.718442,-0.29405996,-0.0058634817,0.004263188,-0.009138371,2.0293853,6.1439705,6.8315554,0,0,0,0,0,0,0,0,0,0,0,0,0,0,0,0,0,0,0,0,0
124,0.8777127,-0.7176876,-0.29349425,-0.038886677,-0.018107364,4.4900895E-4,1.9575591,6.1343937,6.9979525,0,0,0,0,0,0,0,0,0,0,0,0,0,0,0,0,0,0,0,0,0
125,0.8801534,-0.71511954,-0.29484758,-0.058076352,-0.10868387,0.002602441,2.0581157,5.981165,7.206248,0,0,0,0,0,0,0,0,0,0,0,0,0,0,0,0,0,0,0,0,0
126,0.880936,-0.71359676,-0.2990231,-0.031444743,-0.14277233,-0.008050203,2.098817,6.211008,7.026683,0,0,0,0,0,0,0,0,0,0,0,0,0,0,0,0,0,0,0,0,0
127,0.8800287,-0.7127656,-0.30167937,0.005839513,-0.029854301,0.035625637,2.2221184,6.035034,6.9440827,0,0,0,0,0,0,0,0,0,0,0,0,0,0,0,0,0,0,0,0,0
128,0.87790436,-0.71307856,-0.30224806,0.06655958,0.06175844,0.030299315,2.3322518,5.9859533,7.030274,0,0,0,0,0,0,0,0,0,0,0,0,0,0,0,0,0,0,0,0,0
129,0.8769702,-0.7139637,-0.30185995,0.043123767,0.0329963,-5.933523E-4,2.2448633,5.9667997,6.970419,0,0,0,0,0,0,0,0,0,0,0,0,0,0,0,0,0,0,0,0,0
130,0.87702274,-0.7145065,-0.30225658,0.020753216,-0.046898533,-0.02189864,2.2197242,6.04102,6.9512653,0,0,0,0,0,0,0,0,0,0,0,0,0,0,0,0,0,0,0,0,0
131,0.8774681,-0.71467197,-0.303151,0.020753216,-0.021332186,-0.017637582,2.230498,6.0374284,6.970419,0,0,0,0,0,0,0,0,0,0,0,0,0,0,0,0,0,0,0,0,0
132,0.8789859,-0.715154,-0.30221298,0.044189032,0.017017333,-0.037877608,2.110788,6.0625677,7.0937204,0,0,0,0,0,0,0,0,0,0,0,0,0,0,0,0,0,0,0,0,0
133,0.8810114,-0.7167906,-0.30109614,0.043123767,-0.021332186,-0.0410734,2.0425534,6.184672,7.029077,0,0,0,0,0,0,0,0,0,0,0,0,0,0,0,0,0,0,0,0,0
134,0.88200116,-0.7176235,-0.3013991,0.039927974,-0.035180625,-0.025094435,2.073678,6.128408,6.946477,0,0,0,0,0,0,0,0,0,0,0,0,0,0,0,0,0,0,0,0,0
135,0.881731,-0.71890646,-0.30248174,0.03886271,-0.035180625,-0.01444179,2.1311388,6.1092544,6.78846,0,0,0,0,0,0,0,0,0,0,0,0,0,0,0,0,0,0,0,0,0
136,0.88153875,-0.7194523,-0.3030107,5.1319116E-4,-0.023462715,-0.027224964,2.1395185,6.1774893,6.805219,0,0,0,0,0,0,0,0,0,0,0,0,0,0,0,0,0,0,0,0,0
137,0.88398486,-0.7187966,-0.30174893,-0.012269982,0.011691011,-0.0059196744,1.967136,6.163124,7.1236477,0,0,0,0,0,0,0,0,0,0,0,0,0,0,0,0,0,0,0,0,0
138,0.88513017,-0.71827275,-0.30179703,0.035666917,-0.011744807,0.019646673,2.1012113,6.04102,7.2577233,0,0,0,0,0,0,0,0,0,0,0,0,0,0,0,0,0,0,0,0,0
139,0.8852823,-0.7191203,-0.30286923,0.06336379,-0.050094325,-0.013376526,2.1012113,6.196643,7.0973115,0,0,0,0,0,0,0,0,0,0,0,0,0,0,0,0,0,0,0,0,0
140,0.8837317,-0.7222303,-0.30581978,0.13367124,-0.0959007,0.03136458,2.0269911,6.3139586,6.970419,0,0,0,0,0,0,0,0,0,0,0,0,0,0,0,0,0,0,0,0,0
141,0.87979263,-0.72473645,-0.31043008,0.14645442,-0.06500803,0.064387776,2.2209213,6.151153,6.877045,0,0,0,0,0,0,0,0,0,0,0,0,0,0,0,0,0,0,0,0,0
142,0.8763982,-0.72827363,-0.31429526,0.15391792,-0.03516784,0.030289195,2.1850083,6.1703067,7.114071,0,0,0,0,0,0,0,0,0,0,0,0,0,0,0,0,0,0,0,0,0
143,0.8742649,-0.73140395,-0.31743562,0.24020435,-0.096953176,0.04307237,2.2723968,6.154744,7.266103,0,0,0,0,0,0,0,0,0,0,0,0,0,0,0,0,0,0,0,0,0
144,0.8690313,-0.73896134,-0.32473135,0.29133704,-0.11399741,0.03561552,2.2568343,6.28044,7.091326,0,0,0,0,0,0,0,0,0,0,0,0,0,0,0,0,0,0,0,0,0
145,0.8612947,-0.7493217,-0.33292055,0.41810352,-0.09162685,0.024962874,2.4735096,6.211008,6.842329,0,0,0,0,0,0,0,0,0,0,0,0,0,0,0,0,0,0,0,0,0
146,0.85361683,-0.7591169,-0.33870912,0.40425506,-0.08310474,-0.04534458,2.5094225,6.3355064,6.3934164,0,0,0,0,0,0,0,0,0,0,0,0,0,0,0,0,0,0,0,0,0
147,0.84697735,-0.77139497,-0.34344742,0.3488613,-0.047951013,-0.061323546,2.38253,6.43726,6.234202,0,0,0,0,0,0,0,0,0,0,0,0,0,0,0,0,0,0,0,0,0
148,0.8411437,-0.77904254,-0.34666985,0.22102958,-0.08310474,-0.06451934,2.3909097,6.4887357,5.914576,0,0,0,0,0,0,0,0,0,0,0,0,0,0,0,0,0,0,0,0,0
149,0.83774453,-0.7847105,-0.3498213,0.09213259,-0.096953176,-0.06345408,2.3526025,6.6323876,5.9289412,0,0,0,0,0,0,0,0,0,0,0,0,0,0,0,0,0,0,0,0,0
150,0.83497864,-0.7874329,-0.3525717,0.040999897,-0.07564789,-0.03895299,2.3130982,6.586898,5.9097877,0,0,0,0,0,0,0,0,0,0,0,0,0,0,0,0,0,0,0,0,0
151,0.8332107,-0.7881103,-0.352701,-0.010132795,-0.0042751725,-0.029365612,2.287959,6.6659064,6.120477,0,0,0,0,0,0,0,0,0,0,0,0,0,0,0,0,0,0,0,0,0
152,0.8346072,-0.78659785,-0.3511211,-0.050612845,-0.0021446436,-0.006995059,2.2113445,6.634782,6.5454483,0,0,0,0,0,0,0,0,0,0,0,0,0,0,0,0,0,0,0,0,0
153,0.8358581,-0.78500056,-0.35069802,-0.022915969,-0.02771099,-0.008060323,2.3083098,6.574927,6.678326,0,0,0,0,0,0,0,0,0,0,0,0,0,0,0,0,0,0,0,0,0
154,0.8348824,-0.7846313,-0.35194495,0.014368286,-0.036233105,-0.017647702,2.4483705,6.5485907,6.3850365,0,0,0,0,0,0,0,0,0,0,0,0,0,0,0,0,0,0,0,0,0
155,0.8364303,-0.78428453,-0.35138395,-0.0026759442,-0.0010793792,-0.0357572,2.3657706,6.5342255,6.6232595,0,0,0,0,0,0,0,0,0,0,0,0,0,0,0,0,0,0,0,0,0
156,0.838848,-0.78470695,-0.35043314,0.028216723,-0.031972047,-0.054931957,2.3310547,6.6036572,6.5741787,0,0,0,0,0,0,0,0,0,0,0,0,0,0,0,0,0,0,0,0,0
157,0.8411069,-0.78599757,-0.35021457,0.023955666,-0.0543426,-0.041083522,2.200421,6.754193,6.506243,0,0,0,0,0,0,0,0,0,0,0,0,0,0,0,0,0,0,0,0,0
158,0.84190094,-0.7862335,-0.3511151,0.030347252,-0.055407867,-0.008060323,2.2411225,6.58181,6.482301,0,0,0,0,0,0,0,0,0,0,0,0,0,0,0,0,0,0,0,0,0
159,0.8409719,-0.7878462,-0.3527356,0.05910593,-0.034108967,-0.016577378,2.3129485,6.675184,6.3087215,0,0,0,0,0,0,0,0,0,0,0,0,0,0,0,0,0,0,0,0,0
160,0.8386686,-0.7893246,-0.35405573,0.062301725,-0.01067315,-0.0016636767,2.3943512,6.568642,6.126762,0,0,0,0,0,0,0,0,0,0,0,0,0,0,0,0,0,0,0,0,0
161,0.8371612,-0.7899683,-0.3544112,-0.008005729,0.005305816,-5.984123E-4,2.3608325,6.6452565,6.233304,0,0,0,0,0,0,0,0,0,0,0,0,0,0,0,0,0,0,0,0,0
162,0.83693695,-0.7885719,-0.35462463,-0.031441547,-0.019195266,0.008988967,2.4326587,6.482451,6.3769565,0,0,0,0,0,0,0,0,0,0,0,0,0,0,0,0,0,0,0,0,0
163,0.83813655,-0.78772336,-0.35473296,0.010103767,-0.009607886,-0.021903701,2.3775918,6.5506854,6.457162,0,0,0,0,0,0,0,0,0,0,0,0,0,0,0,0,0,0,0,0,0
164,0.83966726,-0.7875876,-0.35435072,-0.008005729,-0.015999474,-0.015512114,2.3835773,6.7194767,6.5864487,0,0,0,0,0,0,0,0,0,0,0,0,0,0,0,0,0,0,0,0,0
165,0.84114397,-0.7871962,-0.3545477,-0.012266786,-0.03943529,-0.020838436,2.3225253,6.685958,6.4966664,0,0,0,0,0,0,0,0,0,0,0,0,0,0,0,0,0,0,0,0,0
166,0.8431263,-0.78675836,-0.35418546,0.026082734,0.009566873,-0.0069899987,2.3225253,6.5530796,6.597223,0,0,0,0,0,0,0,0,0,0,0,0,0,0,0,0,0,0,0,0,0
167,0.8421497,-0.7881349,-0.35450098,0.056975402,-0.014934208,-0.015512114,2.354847,6.6787753,6.25964,0,0,0,0,0,0,0,0,0,0,0,0,0,0,0,0,0,0,0,0,0
168,0.84158576,-0.7887355,-0.3555643,-0.011201521,-0.038370024,-0.0037942056,2.3620296,6.608146,6.2141504,0,0,0,0,0,0,0,0,0,0,0,0,0,0,0,0,0,0,0,0,0
169,0.84218895,-0.78794616,-0.35602313,-0.0090709925,-0.014934208,-0.009120528,2.3644238,6.532729,6.3230867,0,0,0,0,0,0,0,0,0,0,0,0,0,0,0,0,0,0,0,0,0
170,0.8431546,-0.7875829,-0.35529584,-0.008005729,0.009566873,-0.010185792,2.3285108,6.6584244,6.4499793,0,0,0,0,0,0,0,0,0,0,0,0,0,0,0,0,0,0,0,0,0
171,0.84435654,-0.7866241,-0.3549775,-0.010136257,-0.013868944,-5.984123E-4,2.3740005,6.579416,6.5481415,0,0,0,0,0,0,0,0,0,0,0,0,0,0,0,0,0,0,0,0,0
172,0.8458311,-0.7859164,-0.35508502,0.0069079734,-0.026652116,-0.0059247343,2.3404818,6.569839,6.5744777,0,0,0,0,0,0,0,0,0,0,0,0,0,0,0,0,0,0,0,0,0
173,0.846254,-0.7862555,-0.35583964,0.038865905,-0.018130003,-0.015512114,2.4350529,6.5375175,6.4619503,0,0,0,0,0,0,0,0,0,0,0,0,0,0,0,0,0,0,0,0,0
174,0.8463692,-0.7873325,-0.35592067,0.030343791,-0.006412093,-0.032556344,2.3261166,6.6584244,6.293159,0,0,0,0,0,0,0,0,0,0,0,0,0,0,0,0,0,0,0,0,0
175,0.84736,-0.78771734,-0.3556875,0.0047875647,-0.02024109,-0.009135974,2.318934,6.6117377,6.405687,0,0,0,0,0,0,0,0,0,0,0,0,0,0,0,0,0,0,0,0,0
176,0.84751177,-0.78769475,-0.35639453,-5.387575E-4,-0.033024263,-0.014462296,2.3608325,6.6273,6.3338604,0,0,0,0,0,0,0,0,0,0,0,0,0,0,0,0,0,0,0,0,0
177,0.8488811,-0.78741044,-0.35597444,0.011179151,-0.0053273872,-0.010201238,2.2782326,6.626103,6.518214,0,0,0,0,0,0,0,0,0,0,0,0,0,0,0,0,0,0,0,0,0
178,0.8497109,-0.78742033,-0.35590395,0.01330968,-0.019175826,-0.001679123,2.3177369,6.6452565,6.531382,0,0,0,0,0,0,0,0,0,0,0,0,0,0,0,0,0,0,0,0,0
179,0.8495738,-0.78704107,-0.35747835,-0.0037345507,-0.06711272,0.010038786,2.4087164,6.616526,6.43322,0,0,0,0,0,0,0,0,0,0,0,0,0,0,0,0,0,0,0,0,0
180,0.8491625,-0.78636074,-0.36006445,0.009048622,-0.043676905,-0.0038096518,2.5008934,6.4609027,6.4068837,0,0,0,0,0,0,0,0,0,0,0,0,0,0,0,0,0,0,0,0,0
181,0.84903705,-0.7867798,-0.36085168,0.04526761,-0.021306355,-0.035767585,2.5260324,6.533926,6.4104753,0,0,0,0,0,0,0,0,0,0,0,0,0,0,0,0,0,0,0,0,0
182,0.8498464,-0.7881415,-0.36089167,0.023962324,-0.029828468,-0.04855076,2.4781485,6.6332855,6.3542113,0,0,0,0,0,0,0,0,0,0,0,0,0,0,0,0,0,0,0,0,0
183,0.85183734,-0.7888463,-0.36042777,0.010113887,-0.036220055,-0.049616024,2.378789,6.615329,6.3745623,0,0,0,0,0,0,0,0,0,0,0,0,0,0,0,0,0,0,0,0,0
184,0.85384727,-0.78909135,-0.35994178,0.0122444155,-0.038350586,-0.050681286,2.3285108,6.6273,6.4427967,0,0,0,0,0,0,0,0,0,0,0,0,0,0,0,0,0,0,0,0,0
185,0.85646003,-0.7897841,-0.35943708,0.028223382,-0.036220055,-0.047485493,2.30816,6.6452565,6.4870896,0,0,0,0,0,0,0,0,0,0,0,0,0,0,0,0,0,0,0,0,0
186,0.85732746,-0.79081154,-0.35941112,0.047398143,-0.034089528,-0.032571793,2.320131,6.6715927,6.3709707,0,0,0,0,0,0,0,0,0,0,0,0,0,0,0,0,0,0,0,0,0
187,0.85695213,-0.79214424,-0.3604744,0.029288646,-0.055394817,-0.028310733,2.3967454,6.6476507,6.232107,0,0,0,0,0,0,0,0,0,0,0,0,0,0,0,0,0,0,0,0,0
188,0.8580383,-0.7922756,-0.36092415,-5.387575E-4,-0.026632676,-0.024049677,2.3620296,6.615329,6.373365,0,0,0,0,0,0,0,0,0,0,0,0,0,0,0,0,0,0,0,0,0
189,0.85936314,-0.7923018,-0.36063603,0.029288646,-0.0117189735,-0.01765809,2.3716063,6.6548333,6.495469,0,0,0,0,0,0,0,0,0,0,0,0,0,0,0,0,0,0,0,0,0
190,0.8590422,-0.79337984,-0.36154568,0.033549704,-0.033024263,-0.013397031,2.4123077,6.691943,6.337452,0,0,0,0,0,0,0,0,0,0,0,0,0,0,0,0,0,0,0,0,0
191,0.85943663,-0.7937276,-0.36193314,0.035680234,-0.015980031,-0.021919148,2.3704093,6.5770216,6.3482256,0,0,0,0,0,0,0,0,0,0,0,0,0,0,0,0,0,0,0,0,0
192,0.8593843,-0.79516196,-0.36218816,0.052716207,-0.018126806,-0.027232686,2.3704093,6.675184,6.279991,0,0,0,0,0,0,0,0,0,0,0,0,0,0,0,0,0,0,0,0,0
193,0.8591505,-0.79598975,-0.3627255,0.035671975,-0.0074741617,-0.013384248,2.4398413,6.652439,6.2979474,0,0,0,0,0,0,0,0,0,0,0,0,0,0,0,0,0,0,0,0,0
194,0.85980725,-0.79665035,-0.36266652,0.03354145,0.0021132184,-0.013384248,2.4123077,6.641665,6.399701,0,0,0,0,0,0,0,0,0,0,0,0,0,0,0,0,0,0,0,0,0
195,0.8604337,-0.79781413,-0.36249682,0.045259356,-0.0042783683,-0.017645307,2.3404818,6.6727896,6.3350577,0,0,0,0,0,0,0,0,0,0,0,0,0,0,0,0,0,0,0,0,0
196,0.8615138,-0.79852504,-0.36245298,0.04312883,-0.020257335,-0.024036894,2.3452702,6.688352,6.411672,0,0,0,0,0,0,0,0,0,0,0,0,0,0,0,0,0,0,0,0,0
197,0.8615621,-0.79991907,-0.36332345,0.053781472,-0.02877945,-0.009123191,2.3596354,6.697929,6.3123126,0,0,0,0,0,0,0,0,0,0,0,0,0,0,0,0,0,0,0,0,0
198,0.8607766,-0.80074984,-0.36424473,0.04845515,-0.0042783683,-0.012318985,2.4398413,6.711097,6.2728086,0,0,0,0,0,0,0,0,0,0,0,0,0,0,0,0,0,0,0,0,0
199,0.8616958,-0.8022494,-0.36366656,0.06549938,0.00957007,-0.0208411,2.343325,6.7428203,6.4140663,0,0,0,0,0,0,0,0,0,0,0,0,0,0,0,0,0,0,0,0,0
200,0.8621505,-0.8032815,-0.3639842,0.05804253,-0.023453128,-0.010188456,2.4307132,6.6374755,6.4020953,0,0,0,0,0,0,0,0,0,0,0,0,0,0,0,0,0,0,0,0,0
201,0.8605144,-0.8053718,-0.36536047,0.051650945,-0.0021478394,-0.016580041,2.3540988,6.8493624,5.9651537,0,0,0,0,0,0,0,0,0,0,0,0,0,0,0,0,0,0,0,0,0
202,0.8608833,-0.8062495,-0.36372083,0.03673724,0.059637498,-0.025102157,2.404377,6.684162,6.3338604,0,0,0,0,0,0,0,0,0,0,0,0,0,0,0,0,0,0,0,0,0
203,0.8643717,-0.80622905,-0.3633867,0.037802506,-0.116131134,-0.10925805,2.5073278,6.481852,6.609194,0,0,0,0,0,0,0,0,0,0,0,0,0,0,0,0,0,0,0,0,0
204,0.8678295,-0.8095414,-0.36463493,0.034606714,-0.12252272,-0.12523702,2.2499511,6.9690723,5.9041014,0,0,0,0,0,0,0,0,0,0,0,0,0,0,0,0,0,0,0,0,0
205,0.8683918,-0.8106059,-0.36232933,0.042063564,0.170425,0.0089863045,2.2523453,7.003788,6.208165,0,0,0,0,0,0,0,0,0,0,0,0,0,0,0,0,0,0,0,0,0
206,0.8662501,-0.8131292,-0.3556524,0.19226585,0.3110399,0.045205295,2.1601684,6.726061,6.4751186,0,0,0,0,0,0,0,0,0,0,0,0,0,0,0,0,0,0,0,0,0
207,0.862674,-0.8184591,-0.3505779,0.09319626,0.21090505,0.018573685,1.6777369,7.311443,5.662287,0,0,0,0,0,0,0,0,0,0,0,0,0,0,0,0,0,0,0,0,0
208,0.8585685,-0.81847477,-0.34498134,-0.090029225,0.18320817,0.19540758,1.4838065,7.5149503,5.913678,0,0,0,0,0,0,0,0,0,0,0,0,0,0,0,0,0,0,0,0,0
209,0.85152185,-0.8113898,-0.34025627,-0.123052426,0.50065696,0.22416972,1.8273745,7.5077677,6.6510925,0,0,0,0,0,0,0,0,0,0,0,0,0,0,0,0,0,0,0,0,0
210,0.84395784,-0.8110765,-0.33123448,0.16989529,0.6476635,0.24760553,1.7794905,6.8110547,6.2644286,0,0,0,0,0,0,0,0,0,0,0,0,0,0,0,0,0,0,0,0,0
211,0.8366637,-0.8137047,-0.31489742,0.11556681,0.71477515,0.10912116,1.8764555,6.5189624,6.4032927,0,0,0,0,0,0,0,0,0,0,0,0,0,0,0,0,0,0,0,0,0
212,0.84383225,-0.8128228,-0.30046386,-0.03783127,0.20664398,-0.073039055,1.3605051,6.9630866,7.33344,0,0,0,0,0,0,0,0,0,0,0,0,0,0,0,0,0,0,0,0,0
213,0.8483181,-0.81189233,-0.29832625,-0.050614443,-0.12358798,0.06544532,1.4766239,6.9690723,6.2871737,0,0,0,0,0,0,0,0,0,0,0,0,0,0,0,0,0,0,0,0,0
214,0.8433576,-0.8077392,-0.3034842,-0.07191973,0.06815961,0.15492754,2.0919337,6.7332435,6.229713,0,0,0,0,0,0,0,0,0,0,0,0,0,0,0,0,0,0,0,0,0
215,0.8405158,-0.8054065,-0.3014511,0.09426152,0.33980206,0.14747068,2.441487,6.2723594,6.8557963,0,0,0,0,0,0,0,0,0,0,0,0,0,0,0,0,0,0,0,0,0
216,0.83630025,-0.8077806,-0.29843166,0.16989529,0.17788185,0.073967434,2.3768437,6.538116,6.839037,0,0,0,0,0,0,0,0,0,0,0,0,0,0,0,0,0,0,0,0,0
217,0.83368,-0.8101054,-0.29994535,0.16243844,0.005309012,0.08035902,1.9542671,6.45791,6.5026517,0,0,0,0,0,0,0,0,0,0,0,0,0,0,0,0,0,0,0,0,0
218,0.82480115,-0.81248015,-0.3063788,0.14113316,-0.006408897,0.08142429,2.582745,6.4243913,6.4164605,0,0,0,0,0,0,0,0,0,0,0,0,0,0,0,0,0,0,0,0,0
219,0.8223152,-0.8139279,-0.30926642,0.19972269,0.027679564,0.012182098,2.4366987,6.568043,6.7624226,0,0,0,0,0,0,0,0,0,0,0,0,0,0,0,0,0,0,0,0,0
220,0.81753343,-0.8225174,-0.31118235,0.4181019,0.11183546,-0.03468954,2.5791538,6.372916,6.6295447,0,0,0,0,0,0,0,0,0,0,0,0,0,0,0,0,0,0,0,0,0
221,0.81311536,-0.8377286,-0.3089785,0.42875454,0.14379339,-0.14973809,2.1015105,6.910414,5.8681884,0,0,0,0,0,0,0,0,0,0,0,0,0,0,0,0,0,0,0,0,0
222,0.81495667,-0.84801817,-0.301054,0.40851453,0.27375564,-0.13375913,1.5460558,7.2084923,6.443994,0,0,0,0,0,0,0,0,0,0,0,0,0,0,0,0,0,0,0,0,0
223,0.8169701,-0.860912,-0.2949177,0.3616429,-0.0117352195,-0.09221382,1.228824,7.4108024,6.4870896,1,0,0,0,0,0,0,0,0,0,0,0,0,0,0,0,0,0,0,0,0
224,0.81612253,-0.86993396,-0.29743314,0.3371418,-0.1353059,-0.0986054,1.4766239,7.331794,5.9160724,1,0,0,0,0,0,0,0,0,0,0,0,0,0,0,0,0,0,0,0,0
225,0.8197456,-0.88384426,-0.29264688,0.39465544,0.16614902,-0.13055003,0.6697779,7.9195704,5.816713,1,0,0,0,0,0,0,0,0,0,0,0,0,0,0,0,0,0,0,0,0
226,0.82765454,-0.8962216,-0.27210104,0.6247526,0.6103643,0.4287138,-3.8792052,10.938659,7.0724716,1,0,0,0,0,0,0,0,0,0,0,0,0,0,0,0,0,0,0,0,0
227,0.74855685,-0.9089118,-0.30379033,1.303326,1.0876027,2.8031883,-4.5483847,11.015273,9.403227,1,0,0,0,0,0,0,0,0,0,0,0,0,0,0,0,0,0,0,0,0
228,0.5497016,-0.91608995,-0.4342973,2.020249,1.0332743,3.7747095,0.8265981,6.0951886,8.4347725,1,0,0,0,0,0,0,0,0,0,0,0,0,0,0,0,0,0,0,0,0
229,0.39279294,-0.9179264,-0.5342144,2.4623337,1.5563191,3.921716,-1.2551602,7.2491937,7.5082164,1,0,0,0,0,0,0,0,0,0,0,0,0,0,0,0,0,0,0,0,0
230,0.13295622,-0.89946365,-0.69422174,2.9406374,1.4167695,4.9496956,-0.18854338,5.0872297,7.8709383,1,0,0,0,0,0,0,0,0,0,0,0,0,0,0,0,0,0,0,0,0
231,-0.045929983,-0.8482625,-0.845191,2.0309017,-0.7712837,4.9283905,2.8496985,2.6882396,4.417302,1,0,0,0,0,0,0,0,0,0,0,0,0,0,0,0,0,0,0,0,0
232,-0.2850988,-0.75358045,-1.03302,2.1619291,0.10755948,4.5012193,6.87914,3.0533555,-0.46926352,1,0,0,0,0,0,0,0,0,0,0,0,0,0,0,0,0,0,0,0,0
233,-0.49011606,-0.67278975,-1.0742078,3.5936446,4.3409204,4.353148,5.9741316,4.9292126,4.3646297,1,0,0,0,0,0,0,0,0,0,0,0,0,0,0,0,0,0,0,0,0
234,-0.66104954,-0.6024145,-1.0900979,2.0671206,1.878029,4.111333,11.116877,0.6100725,0.7266402,1,0,0,0,0,0,0,0,0,0,0,0,0,0,0,0,0,0,0,0,0
235,-0.76849514,-0.5045,-1.1019768,0.42661336,1.6308876,2.7978618,12.949638,0.5621885,1.1192893,1,0,0,0,0,0,0,0,0,0,0,0,0,0,0,0,0,0,0,0,0
236,-0.7930501,-0.4623147,-1.0442001,0.9294182,3.2223926,1.6889216,8.091804,1.6108488,7.2783732,1,0,0,0,0,0,0,0,0,0,0,0,0,0,0,0,0,0,0,0,0
237,-0.8618114,-0.41984195,-1.0046312,0.081467696,0.7754803,1.2564243,10.525509,-0.13093291,6.63553,1,0,0,0,0,0,0,0,0,0,0,0,0,0,0,0,0,0,0,0,0
238,-0.8911568,-0.4069796,-1.0007087,0.6694937,0.3078292,0.14748399,9.552266,1.5378257,6.0597243,1,0,0,0,0,0,0,0,0,0,0,0,0,0,0,0,0,0,0,0,0
239,-0.9100421,-0.41608846,-1.0096502,0.28599846,-0.4314643,-0.3169713,9.165603,2.4284687,5.0996494,1,0,0,0,0,0,0,0,0,0,0,0,0,0,0,0,0,0,0,0,0
240,-0.8949538,-0.43712455,-1.0208597,0.1411225,-0.32280734,-0.65146434,6.141726,4.4348097,4.1706996,1,0,0,0,0,0,0,0,0,0,0,0,0,0,0,0,0,0,0,0,0
241,-0.8819264,-0.45191807,-1.0195485,0.20823416,0.06388364,-0.29992706,6.2003837,5.0010386,4.583699,1,0,0,0,0,0,0,0,0,0,0,0,0,0,0,0,0,0,0,0,0
242,-0.88090414,-0.46412396,-1.0196613,0.4074386,0.017012006,-0.16570374,7.6692266,5.1446905,4.808754,1,0,0,0,0,0,0,0,0,0,0,0,0,0,0,0,0,0,0,0,0
243,-0.8883603,-0.47395137,-1.0308285,0.27747634,-0.4165506,-0.37023452,9.0794115,4.5126214,3.7660792,1,0,0,0,0,0,0,0,0,0,0,0,0,0,0,0,0,0,0,0,0
244,-0.8783096,-0.49137348,-1.0448952,-0.041037716,-0.44318223,-0.682357,7.569867,4.5162125,3.4380736,1,0,0,0,0,0,0,0,0,0,0,0,0,0,0,0,0,0,0,0,0
245,-0.86044973,-0.5087394,-1.046412,0.013290771,-0.14384292,-0.6141801,6.1117983,5.0848355,3.8115692,1,0,0,0,0,0,0,0,0,0,0,0,0,0,0,0,0,0,0,0,0
246,-0.8515241,-0.52135324,-1.0459293,-0.09217041,-0.06927441,-0.44799882,7.992444,4.4539633,3.8546648,1,0,0,0,0,0,0,0,0,0,0,0,0,0,0,0,0,0,0,0,0
247,-0.8392704,-0.5355979,-1.0447589,-0.10601884,-0.21734616,-0.76864344,8.511986,4.2624273,3.8163576,1,0,0,0,0,0,0,0,0,0,0,0,0,0,0,0,0,0,0,0,0
248,-0.81891894,-0.55286753,-1.0422974,-0.21680635,-0.34730843,-1.0914185,7.719505,4.4324155,4.489128,1,0,0,0,0,0,0,0,0,0,0,0,0,0,0,0,0,0,0,0,0
249,-0.79016614,-0.583373,-1.0439351,-0.21467581,-0.69138885,-1.428042,8.236652,4.293552,4.188656,0,0,0,0,0,0,0,0,0,0,0,0,0,0,0,0,0,0,0,0,0
250,-0.76202387,-0.6117756,-1.0450072,-0.33078963,-0.82667744,-1.738034,8.142081,4.433613,4.4316673,0,0,0,0,0,0,0,0,0,0,0,0,0,0,0,0,0,0,0,0,0
251,-0.7160417,-0.6572315,-1.0464948,-0.5736699,-1.1771494,-2.2930367,8.533533,3.772813,3.8965633,0,0,0,0,0,0,0,0,0,0,0,0,0,0,0,0,0,0,0,0,0
252,-0.6673927,-0.7018265,-1.0418785,-0.6610216,-0.9949892,-2.9428482,7.9194207,4.2743983,2.7868507,0,0,0,0,0,0,0,0,0,0,0,0,0,0,0,0,0,0,0,0,0
253,-0.58297116,-0.77909774,-0.99486935,-0.4277287,-0.1417124,-3.4115644,6.097433,4.0780735,2.9867666,0,0,0,0,0,0,0,0,0,0,0,0,0,0,0,0,0,0,0,0,0
254,-0.46550396,-0.8608964,-0.9109212,-0.98486197,-0.7084331,-4.014504,5.8244944,3.7644331,3.1651347,0,0,0,0,0,0,0,0,0,0,0,0,0,0,0,0,0,0,0,0,0
255,-0.32849342,-0.91619146,-0.81820154,-1.7177639,-1.1398652,-4.8251705,4.8656163,3.4136827,2.2768857,0,0,0,0,0,0,0,0,0,0,0,0,0,0,0,0,0,0,0,0,0
256,-0.0078483075,-0.9760303,-0.5930129,-2.3207035,-0.55610025,-5.1628594,0.17178397,3.832668,2.4911668,0,0,0,0,0,0,0,0,0,0,0,0,0,0,0,0,0,0,0,0,0
257,0.27051488,-0.97417426,-0.37842658,-2.2834194,-0.17367032,-4.616379,-2.0859482,4.577265,6.2009826,0,0,0,0,0,0,0,0,0,0,0,0,0,0,0,0,0,0,0,0,0
258,0.57839674,-0.9396238,-0.14617616,-2.0682359,-0.65836567,-4.2946687,-3.578733,6.988226,6.9264255,0,0,0,0,0,0,0,0,0,0,0,0,0,0,0,0,0,0,0,0,0
259,0.80318385,-0.8754668,0.0024010185,-2.2056634,-1.0525255,-3.1207368,-7.2179193,11.034427,8.625112,0,0,0,0,0,0,0,0,0,0,0,0,0,0,0,0,0,0,0,0,0
260,0.8900693,-0.8203349,0.03872486,-1.7635788,-0.9278895,-1.1606504,-6.4817023,11.011682,10.372879,0,0,0,0,0,0,0,0,0,0,0,0,0,0,0,0,0,0,0,0,0
261,0.9224,-0.79123634,0.05276299,-0.0900484,0.27585927,-0.085798524,-4.276643,8.277503,10.491392,0,0,0,0,0,0,0,0,0,0,0,0,0,0,0,0,0,0,0,0,0
262,0.93249625,-0.80351067,0.07465457,0.70570415,0.7850557,0.08570904,-2.8413188,7.6514196,8.4647,0,0,0,0,0,0,0,0,0,0,0,0,0,0,0,0,0,0,0,0,0
263,0.93972325,-0.82532954,0.096323535,0.76855475,0.5357838,0.13897227,-2.558803,7.640646,8.050503,0,0,0,0,0,0,0,0,0,0,0,0,0,0,0,0,0,0,0,0,0
264,0.9315672,-0.85037875,0.097020954,0.6790725,0.056414805,0.23591132,-0.7308301,6.633884,4.459201,0,0,0,0,0,0,0,0,0,0,0,0,0,0,0,0,0,0,0,0,0
265,0.91411847,-0.86618125,0.091275096,0.2668152,0.046827428,-0.002707902,0.7212533,7.0768113,5.092467,0,0,0,0,0,0,0,0,0,0,0,0,0,0,0,0,0,0,0,0,0
266,0.9104792,-0.87130105,0.08891557,-0.15716006,-0.3260151,-0.13480069,-0.078410104,6.580014,3.7014358,0,0,0,0,0,0,0,0,0,0,0,0,0,0,0,0,0,0,0,0,0
267,0.9188816,-0.8608491,0.08769125,-0.668487,-0.68713975,-0.074080616,-1.0205284,7.868095,6.7480574,0,0,0,0,0,0,0,0,0,0,0,0,0,0,0,0,0,0,0,0,0
268,0.90946627,-0.8379876,0.053897496,-0.47354358,-0.5987228,0.09955748,-0.54049104,7.2132807,6.435614,0,0,0,0,0,0,0,0,0,0,0,0,0,0,0,0,0,0,0,0,0
269,0.90486723,-0.8355836,0.0513069,0.20076878,0.51554376,0.06973008,-0.26276365,6.6278987,6.59004,0,0,0,0,0,0,0,0,0,0,0,0,0,0,0,0,0,0,0,0,0
270,0.9098401,-0.8447203,0.07679398,0.28812048,0.65722394,-0.103908025,-0.98820674,7.228843,6.8007298,0,0,0,0,0,0,0,0,0,0,0,0,0,0,0,0,0,0,0,0,0
271,0.9157496,-0.84723043,0.08877539,-0.026132535,-0.08526536,0.011140536,-1.1737574,7.5113587,7.1071877,0,0,0,0,0,0,0,0,0,0,0,0,0,0,0,0,0,0,0,0,0
272,0.9130611,-0.84058475,0.07102079,-0.30310127,-0.72975034,0.030315295,-0.4782418,6.7966895,6.5864487,0,0,0,0,0,0,0,0,0,0,0,0,0,0,0,0,0,0,0,0,0
273,0.9119521,-0.83261395,0.050164625,-0.107092634,-0.46236897,-0.090059586,-0.093972415,6.8996406,6.549339,0,0,0,0,0,0,0,0,0,0,0,0,0,0,0,0,0,0,0,0,0
274,0.91726786,-0.8378255,0.054389708,0.40210375,0.22046553,-0.12521331,-0.6183026,7.013365,6.459556,0,0,0,0,0,0,0,0,0,0,0,0,0,0,0,0,0,0,0,0,0
275,0.92304003,-0.8536528,0.070146166,0.4478843,0.2758236,-0.10920265,-0.599149,7.130681,6.0106435,0,0,0,0,0,0,0,0,0,0,0,0,0,0,0,0,0,0,0,0,0
276,0.9266912,-0.8620137,0.07800684,0.17411135,-0.009667275,-0.113463715,-0.7428011,7.265953,5.7389016,0,0,0,0,0,0,0,0,0,0,0,0,0,0,0,0,0,0,0,0,0
277,0.9325046,-0.8637067,0.08078164,-0.0080488715,-0.11406319,-0.112398446,-0.87807345,7.146243,5.923255,0,0,0,0,0,0,0,0,0,0,0,0,0,0,0,0,0,0,0,0,0
278,0.93829477,-0.86547196,0.0868503,0.101673365,0.081945464,-0.07937525,-1.0660183,7.4874167,6.06571,0,0,0,0,0,0,0,0,0,0,0,0,0,0,0,0,0,0,0,0,0
279,0.93980503,-0.86886346,0.09246007,0.14108814,0.13307816,-0.003741475,-0.96306765,7.311443,6.0956373,0,0,0,0,0,0,0,0,0,0,0,0,0,0,0,0,0,0,0,0,0
280,0.93950325,-0.871975,0.09566403,0.06865016,0.04679174,-0.0016109461,-0.6901286,7.143849,6.10282,1,0,0,0,0,0,0,0,0,0,0,0,0,0,0,0,0,0,0,0,0
281,0.94159544,-0.8721754,0.09691555,0.017517475,-0.07677893,-0.062331017,-0.7823054,7.154623,6.420052,1,0,0,0,0,0,0,0,0,0,0,0,0,0,0,0,0,0,0,0,0
282,0.9453578,-0.8719291,0.09402389,0.032431178,-0.23124227,-0.013328855,-0.9463082,7.488614,6.5469446,1,0,0,0,0,0,0,0,0,0,0,0,0,0,0,0,0,0,0,0,0
283,0.9438621,-0.8737622,0.08839811,0.12191339,-0.1673264,0.025020665,-0.5189432,6.977452,6.126762,1,0,0,0,0,0,0,0,0,0,0,0,0,0,0,0,0,0,0,0,0
284,0.944891,-0.8766742,0.08555901,0.05693226,-0.13430321,-0.10920265,-0.5081693,7.1378636,5.9543796,1,0,0,0,0,0,0,0,0,0,0,0,0,0,0,0,0,0,0,0,0
285,0.9515674,-0.8787931,0.088795185,0.07717228,-0.07571367,-0.1198553,-0.9271546,7.3952403,5.768829,1,0,0,0,0,0,0,0,0,0,0,0,0,0,0,0,0,0,0,0,0
286,0.95803624,-0.88204706,0.095640324,0.116587065,0.059574913,0.03354278,-2.11827,8.233211,5.9998693,1,0,0,0,0,0,0,0,0,0,0,0,0,0,0,0,0,0,0,0,0
287,0.9476905,-0.88742733,0.089856364,0.10806495,-0.04695153,0.5235644,-2.3145945,8.525303,6.0525417,1,0,0,0,0,0,0,0,0,0,0,0,0,0,0,0,0,0,0,0,0
288,0.9305445,-0.88904184,0.07477221,-5.920207E-4,-0.13856427,0.7611184,-3.6864722,8.706065,6.543353,1,0,0,0,0,0,0,0,0,0,0,0,0,0,0,0,0,0,0,0,0
289,0.8790432,-0.8902543,0.029236583,0.008995359,-0.4070109,1.9105387,-8.237849,12.344055,7.1730285,1,0,0,0,0,0,0,0,0,0,0,0,0,0,0,0,0,0,0,0,0
290,0.76536036,-0.8884715,-0.068849586,0.4414927,-0.09488843,4.414975,-6.0064535,9.217228,8.085219,1,0,0,0,0,0,0,0,0,0,0,0,0,0,0,0,0,0,0,0,0
291,0.5177838,-0.8854282,-0.2557896,1.4961045,0.7402789,5.2735786,-3.9187095,5.1470847,7.8182654,1,0,0,0,0,0,0,0,0,0,0,0,0,0,0,0,0,0,0,0,0
292,0.23685807,-0.8739385,-0.44558626,2.15871,1.309145,5.826437,-2.2691047,5.19856,8.423999,1,0,0,0,0,0,0,0,0,0,0,0,0,0,0,0,0,0,0,0,0
293,0.022658162,-0.8406155,-0.59377295,2.4804196,0.8574729,6.028837,-0.15622166,2.7708395,7.3549876,1,0,0,0,0,0,0,0,0,0,0,0,0,0,0,0,0,0,0,0,0
294,-0.23918903,-0.75938743,-0.7862401,1.2937151,-0.1822252,6.014989,1.3557167,2.6906338,2.7341783,1,0,0,0,0,0,0,0,0,0,0,0,0,0,0,0,0,0,0,0,0
295,-0.43921885,-0.6524976,-0.88541263,1.4034374,1.4369768,5.792349,8.289325,0.041449618,4.0078936,1,0,0,0,0,0,0,0,0,0,0,0,0,0,0,0,0,0,0,0,0
296,-0.65863055,-0.5431465,-0.9187068,2.1235561,2.6535087,4.4458547,14.21258,-1.5399206,6.811504,1,0,0,0,0,0,0,0,0,0,0,0,0,0,0,0,0,0,0,0,0
297,-0.7917821,-0.4901074,-0.92591107,1.5440524,1.1749216,2.371785,14.481928,-2.6280854,6.137536,1,0,0,0,0,0,0,0,0,0,0,0,0,0,0,0,0,0,0,0,0
298,-0.878571,-0.47006312,-0.9391583,1.0167464,0.43775868,0.7504524,9.030331,0.6783073,4.380192,1,0,0,0,0,0,0,0,0,0,0,0,0,0,0,0,0,0,0,0,0
299,-0.9157175,-0.46346086,-0.9436122,0.35947827,0.165051,0.40743726,7.465719,2.099266,5.029021,1,0,0,0,0,0,0,0,0,0,0,0,0,0,0,0,0,0,0,0,0
300,-0.9358677,-0.45553684,-0.9527905,0.15707803,-0.16731149,-0.036777988,10.1304655,1.920898,5.400122,1,0,0,0,0,0,0,0,0,0,0,0,0,0,0,0,0,0,0,0,0
301,-0.93739545,-0.47690454,-0.9603028,0.52033323,-0.16731149,-0.7153514,7.903858,4.3617864,4.2401314,1,0,0,0,0,0,0,0,0,0,0,0,0,0,0,0,0,0,0,0,0
302,-0.9281856,-0.50038713,-0.96865505,0.16879594,-0.41338757,-0.82507366,6.6600704,5.3230586,3.5996823,1,0,0,0,0,0,0,0,0,0,0,0,0,0,0,0,0,0,0,0,0
303,-0.9035043,-0.52744704,-0.97366387,-0.003776895,-0.2482716,-0.58006287,5.277419,6.7835217,3.5529952,1,0,0,0,0,0,0,0,0,0,0,0,0,0,0,0,0,0,0,0,0
304,-0.88748753,-0.5376159,-0.97436,-0.1593055,-0.074633494,-0.26367933,6.9725137,6.0832176,3.9911342,1,0,0,0,0,0,0,0,0,0,0,0,0,0,0,0,0,0,0,0,0
305,-0.8761554,-0.54287994,-0.97205305,-0.03573483,-0.0533282,-0.37659734,7.2646065,5.3446064,4.4687777,1,0,0,0,0,0,0,0,0,0,0,0,0,0,0,0,0,0,0,0,0
306,-0.8590932,-0.5562996,-0.97531265,-0.13373916,-0.39634335,-0.4522311,6.0699,5.5720553,3.6463692,1,0,0,0,0,0,0,0,0,0,0,0,0,0,0,0,0,0,0,0,0
307,-0.8419962,-0.5617407,-0.9767788,-0.2221561,-0.11191775,-0.21148135,5.9968767,5.5014267,3.9827545,1,0,0,0,0,0,0,0,0,0,0,0,0,0,0,0,0,0,0,0,0
308,-0.8360873,-0.55863434,-0.9726813,-0.22428663,0.0084571345,-0.21361189,8.680777,4.1606736,4.8722005,1,0,0,0,0,0,0,0,0,0,0,0,0,0,0,0,0,0,0,0,0
309,-0.83346766,-0.5617475,-0.97013664,-0.16356656,-0.16518097,-0.9614275,10.295666,3.3059437,5.127183,1,0,0,0,0,0,0,0,0,0,0,0,0,0,0,0,0,0,0,0,0
310,-0.8048073,-0.5908161,-0.9665212,-0.35744467,-0.7489459,-1.7603759,8.978855,3.262848,4.425682,1,0,0,0,0,0,0,0,0,0,0,0,0,0,0,0,0,0,0,0,0
311,-0.74912137,-0.63153815,-0.9639222,-0.7377441,-1.1388327,-2.4155135,8.909423,2.7516859,3.965995,1,0,0,0,0,0,0,0,0,0,0,0,0,0,0,0,0,0,0,0,0
312,-0.6950449,-0.6710641,-0.94897133,-0.8368137,-0.70420474,-3.328445,8.743026,2.2943933,2.9831753,1,0,0,0,0,0,0,0,0,0,0,0,0,0,0,0,0,0,0,0,0
313,-0.57739145,-0.75165033,-0.8708816,-0.7942031,0.1352236,-4.1955705,6.067506,3.3873465,3.2944214,1,0,0,0,0,0,0,0,0,0,0,0,0,0,0,0,0,0,0,0,0
314,-0.45738944,-0.80901575,-0.77708304,-1.3353574,-0.314318,-4.5652175,3.9845502,2.8642135,3.691859,1,0,0,0,0,0,0,0,0,0,0,0,0,0,0,0,0,0,0,0,0
315,-0.25681093,-0.85900545,-0.6194916,-1.9532108,-0.81499225,-5.4408646,4.03004,1.0697592,3.4991257,1,0,0,0,0,0,0,0,0,0,0,0,0,0,0,0,0,0,0,0,0
316,0.027970305,-0.8841141,-0.4223788,-2.3377712,-0.6338973,-6.101329,-4.506486,4.9328036,4.6938324,1,0,0,0,0,0,0,0,0,0,0,0,0,0,0,0,0,0,0,0,0
317,0.3542961,-0.8512465,-0.20131119,-2.9140794,-1.0770473,-3.9388416,-9.049484,10.690859,6.992266,1,0,0,0,0,0,0,0,0,0,0,0,0,0,0,0,0,0,0,0,0
318,0.50061536,-0.774005,-0.13276325,-2.2866385,-0.9364324,-1.330009,-3.9354692,9.844508,11.326968,0,0,0,0,0,0,0,0,0,0,0,0,0,0,0,0,0,0,0,0,0
319,0.5587286,-0.74035484,-0.11658405,-0.74200517,-0.19926943,-1.2831373,0.9211691,6.114342,10.569203,0,0,0,0,0,0,0,0,0,0,0,0,0,0,0,0,0,0,0,0,0
320,0.65945375,-0.7349878,-0.040619045,-0.12202124,0.25453323,-1.8711634,-7.5267715,9.752332,10.1621895,0,0,0,0,0,0,0,0,0,0,0,0,0,0,0,0,0,0,0,0,0
321,0.69426566,-0.7255682,-0.030460812,-0.58647656,-0.9385629,0.5501827,-4.049194,9.873239,9.642648,0,0,0,0,0,0,0,0,0,0,0,0,0,0,0,0,0,0,0,0,0
322,0.6790529,-0.71585023,-0.08320887,0.56294376,-0.15985465,0.84632623,2.5121162,4.355801,8.643068,0,0,0,0,0,0,0,0,0,0,0,0,0,0,0,0,0,0,0,0,0
323,0.6613413,-0.7524622,-0.08273269,1.1765361,0.42177972,-0.24556981,1.3557167,6.0820203,5.591658,0,0,0,0,0,0,0,0,0,0,0,0,0,0,0,0,0,0,0,0,0
324,0.6743189,-0.7772168,-0.06415277,0.5171374,0.09367829,-0.27113616,-0.83497787,7.074417,4.915296,0,0,0,0,0,0,0,0,0,0,0,0,0,0,0,0,0,0,0,0,0
325,0.66193515,-0.7845524,-0.075132445,0.032442097,-0.23548841,0.29771504,0.96546185,6.678177,5.409699,0,0,0,0,0,0,0,0,0,0,0,0,0,0,0,0,0,0,0,0,0
326,0.6392454,-0.7876168,-0.08581503,0.32112876,0.16718154,-0.05701801,2.19249,5.7133136,5.864597,0,0,0,0,0,0,0,0,0,0,0,0,0,0,0,0,0,0,0,0,0
327,0.65627307,-0.8022628,-0.06209707,0.26147395,0.33655858,-0.5310607,-0.061650693,6.9750576,5.5629277,0,0,0,0,0,0,0,0,0,0,0,0,0,0,0,0,0,0,0,0,0
328,0.6789512,-0.8042442,-0.041303985,-0.16037077,-0.016043948,-0.30735517,-1.2455834,7.5556517,6.2967505,0,0,0,0,0,0,0,0,0,0,0,0,0,0,0,0,0,0,0,0,0
329,0.6863064,-0.7957811,-0.04128716,-0.19232869,-0.1609199,0.004767325,0.12749124,6.8876696,7.229292,0,0,0,0,0,0,0,0,0,0,0,0,0,0,0,0,0,0,0,0,0
330,0.6909779,-0.79621816,-0.038529836,0.11979378,0.11391831,-0.15289181,0.20530279,6.7464113,6.625953,0,0,0,0,0,0,0,0,0,0,0,0,0,0,0,0,0,0,0,0,0
331,0.7034972,-0.8008063,-0.02405026,0.1283159,0.24281532,-0.21254662,-0.7332243,7.2695446,6.811504,0,0,0,0,0,0,0,0,0,0,0,0,0,0,0,0,0,0,0,0,0
332,0.71104884,-0.8027476,-0.016908681,0.0058104848,-0.074633494,0.030333672,-0.54527944,7.299472,6.8761473,0,0,0,0,0,0,0,0,0,0,0,0,0,0,0,0,0,0,0,0,0
333,0.7080557,-0.80353975,-0.02233404,0.0920969,-0.10872195,0.0026367959,0.23642741,6.728455,6.469133,0,0,0,0,0,0,0,0,0,0,0,0,0,0,0,0,0,0,0,0,0
334,0.7125329,-0.8102936,-0.018494168,0.17199174,0.055328768,-0.11028124,-0.42676646,7.1713824,5.815516,0,0,0,0,0,0,0,0,0,0,0,0,0,0,0,0,0,0,0,0,0
335,0.7154671,-0.81343305,-0.013258994,0.05694318,0.13096255,0.00370206,-0.24241292,7.1270895,6.384139,0,0,0,0,0,0,0,0,0,0,0,0,0,0,0,0,0,0,0,0,0
336,0.7154525,-0.8164881,-0.010838995,0.16986121,0.023370836,-0.027190609,0.14784196,6.824223,6.625953,0,0,0,0,0,0,0,0,0,0,0,0,0,0,0,0,0,0,0,0,0
337,0.7200358,-0.8213292,-0.009285128,0.06013897,-0.10765669,-0.075127505,-0.31663316,7.0995564,6.159084,0,0,0,0,0,0,0,0,0,0,0,0,0,0,0,0,0,0,0,0,0
338,0.7210244,-0.82044613,-0.012150511,-0.04638747,-0.13322304,-0.0048200553,0.10474633,6.9032316,6.554127,0,0,0,0,0,0,0,0,0,0,0,0,0,0,0,0,0,0,0,0,0
339,0.7234526,-0.82105374,-0.012581078,0.09848849,-0.0011302455,-0.13478231,0.28191724,6.7715507,6.525397,0,0,0,0,0,0,0,0,0,0,0,0,0,0,0,0,0,0,0,0,0
340,0.7325449,-0.82512605,-0.0052636797,0.136838,-0.0053913034,-0.16780551,-0.44951138,7.2970777,6.506243,0,0,0,0,0,0,0,0,0,0,0,0,0,0,0,0,0,0,0,0,0
341,0.73750407,-0.8284092,-0.0039178934,0.051616855,-0.120439865,-0.08897594,0.026934769,6.9714665,6.2249246,0,0,0,0,0,0,0,0,0,0,0,0,0,0,0,0,0,0,0,0,0
342,0.74449867,-0.8309718,-6.569609E-4,0.1101763,-0.021412082,-0.22209725,0.15502456,6.7954926,6.2584434,0,0,0,0,0,0,0,0,0,0,0,0,0,0,0,0,0,0,0,0,0
343,0.7572466,-0.8342354,0.008845569,0.102719456,-0.008628909,-0.2796215,-0.57400984,7.3293996,6.353014,0,0,0,0,0,0,0,0,0,0,0,0,0,0,0,0,0,0,0,0,0
344,0.7688848,-0.8372813,0.014606784,0.0803489,-0.13326484,-0.10704869,-0.7032967,7.43235,6.399701,0,0,0,0,0,0,0,0,0,0,0,0,0,0,0,0,0,0,0,0,0
345,0.7699432,-0.83967453,0.01190178,0.069696255,-0.16628805,-0.060177054,-0.09876082,6.9008374,6.030994,1,0,0,0,0,0,0,0,0,0,0,0,0,0,0,0,0,0,0,0,0
346,0.7771015,-0.8413132,0.013650423,0.012171978,-0.0927848,-0.21357512,-0.23882163,7.1127243,5.911284,1,0,0,0,0,0,0,0,0,0,0,0,0,0,0,0,0,0,0,0,0
347,0.78708076,-0.8425594,0.021671753,0.032412,0.03398167,-0.20398775,-0.65182143,7.343765,6.007052,1,0,0,0,0,0,0,0,0,0,0,0,0,0,0,0,0,0,0,0,0
348,0.7969795,-0.84116167,0.02770289,-0.14868295,-0.14391749,-0.07296023,-0.9367314,7.3748894,6.245275,1,0,0,0,0,0,0,0,0,0,0,0,0,0,0,0,0,0,0,0,0
349,0.8033441,-0.83470297,0.023967275,-0.14016083,-0.22168179,0.14009266,-2.2619221,8.1697645,7.5764513,1,0,0,0,0,0,0,0,0,0,0,0,0,0,0,0,0,0,0,0,0
350,0.7944605,-0.83633506,0.011608876,0.29979336,-0.28240186,1.1137444,-4.9877205,10.387992,9.1350765,1,0,0,0,0,0,0,0,0,0,0,0,0,0,0,0,0,0,0,0,0
351,0.71540135,-0.8503833,-0.060701083,0.63961273,-0.43579996,2.361169,-5.3923407,9.250747,7.9750857,1,0,0,0,0,0,0,0,0,0,0,0,0,0,0,0,0,0,0,0,0
352,0.6148252,-0.8577982,-0.1463788,0.98049736,-0.3772104,3.9697182,-7.1712327,10.20723,9.331401,1,0,0,0,0,0,0,0,0,0,0,0,0,0,0,0,0,0,0,0,0
353,0.37625295,-0.8555379,-0.34861907,1.6888982,-0.6531139,5.570811,-4.6441526,6.556072,8.098388,1,0,0,0,0,0,0,0,0,0,0,0,0,0,0,0,0,0,0,0,0
354,0.1693444,-0.8304128,-0.5323432,2.4239306,0.24490403,6.0278096,1.5951369,3.096451,6.015432,1,0,0,0,0,0,0,0,0,0,0,0,0,0,0,0,0,0,0,0,0
355,-0.17090286,-0.78415865,-0.7262594,2.7360532,0.7072288,4.8954334,5.755062,2.0262427,4.900931,1,0,0,0,0,0,0,0,0,0,0,0,0,0,0,0,0,0,0,0,0
356,-0.40649295,-0.7223593,-0.88001454,1.635635,-0.4006462,4.015525,6.729502,2.2740426,1.1935096,1,0,0,0,0,0,0,0,0,0,0,0,0,0,0,0,0,0,0,0,0
357,-0.53445697,-0.65663517,-0.96091384,1.0241731,0.44730428,3.5105894,7.4310036,1.731756,0.3890578,1,0,0,0,0,0,0,0,0,0,0,0,0,0,0,0,0,0,0,0,0
358,-0.66987705,-0.5813573,-0.98449695,1.2564008,1.8214954,3.118572,8.179192,2.1663036,3.1747115,1,0,0,0,0,0,0,0,0,0,0,0,0,0,0,0,0,0,0,0,0
359,-0.76052135,-0.5240194,-0.99359405,0.5096483,1.0385228,2.5167003,10.975619,0.8363246,2.8072014,1,0,0,0,0,0,0,0,0,0,0,0,0,0,0,0,0,0,0,0,0
360,-0.8321701,-0.47057134,-0.9829652,0.44573247,1.4614328,1.4365221,10.694301,1.4552257,4.176685,1,0,0,0,0,0,0,0,0,0,0,0,0,0,0,0,0,0,0,0,0
361,-0.8653682,-0.4464223,-0.9652807,-0.26373363,0.7200088,0.5864411,9.688736,1.7221792,4.56694,1,0,0,0,0,0,0,0,0,0,0,0,0,0,0,0,0,0,0,0,0
362,-0.85727125,-0.42770147,-0.9427315,-0.48424336,0.64650553,0.003741475,8.087015,2.8318918,5.662287,1,0,0,0,0,0,0,0,0,0,0,0,0,0,0,0,0,0,0,0,0
363,-0.83945143,-0.42439833,-0.9155617,-0.11246609,0.49310744,-0.20931141,7.5531077,3.3478422,6.92044,1,0,0,0,0,0,0,0,0,0,0,0,0,0,0,0,0,0,0,0,0
364,-0.8253306,-0.43322355,-0.90547705,0.1602416,0.1831155,-0.43940854,7.20954,4.613178,6.291962,1,0,0,0,0,0,0,0,0,0,0,0,0,0,0,0,0,0,0,0,0
365,-0.80515987,-0.449203,-0.90301025,-0.08157342,-0.30051455,-0.5065202,6.3739634,5.2763715,5.7424927,1,0,0,0,0,0,0,0,0,0,0,0,0,0,0,0,0,0,0,0,0
366,-0.78212744,-0.45971057,-0.9039824,0.015365641,-0.25044712,-0.37016633,5.8424506,5.6187425,5.673061,1,0,0,0,0,0,0,0,0,0,0,0,0,0,0,0,0,0,0,0,0
367,-0.7736072,-0.47094947,-0.9087548,0.28807333,-0.11515855,-0.23807354,7.0587053,4.9447746,5.685032,1,0,0,0,0,0,0,0,0,0,0,0,0,0,0,0,0,0,0,0,0
368,-0.77560663,-0.487617,-0.917401,0.4627767,-0.29518825,-0.45325696,7.5112095,4.1666594,5.6215854,1,0,0,0,0,0,0,0,0,0,0,0,0,0,0,0,0,0,0,0,0
369,-0.77349734,-0.5029758,-0.93441534,0.190069,-0.8352773,-0.64180875,7.569867,4.118775,4.6232033,1,0,0,0,0,0,0,0,0,0,0,0,0,0,0,0,0,0,0,0,0
370,-0.7676237,-0.52048403,-0.95716697,0.09632574,-0.7607088,-0.8591227,9.032724,3.1718683,5.0062757,1,0,0,0,0,0,0,0,0,0,0,0,0,0,0,0,0,0,0,0,0
371,-0.76441264,-0.5425945,-0.97178924,0.11869629,-0.9695006,-1.6953553,10.300454,2.4284687,4.9823337,1,0,0,0,0,0,0,0,0,0,0,0,0,0,0,0,0,0,0,0,0
372,-0.7312869,-0.60148346,-0.9865732,0.04412778,-1.2198378,-2.7201397,9.226655,2.6774657,4.0641575,1,0,0,0,0,0,0,0,0,0,0,0,0,0,0,0,0,0,0,0,0
373,-0.6919998,-0.6597465,-0.9916355,-0.22218832,-1.3082547,-3.494587,8.013991,2.7241526,2.4971523,1,0,0,0,0,0,0,0,0,0,0,0,0,0,0,0,0,0,0,0,0
374,-0.59892136,-0.7529147,-0.96438366,-0.6695994,-0.9087806,-4.2147055,6.52001,3.0581439,1.1947067,1,0,0,0,0,0,0,0,0,0,0,0,0,0,0,0,0,0,0,0,0
375,-0.44801545,-0.8533683,-0.8607603,-0.8198017,0.1916376,-4.7121844,4.4143095,3.6279638,1.4329298,1,0,0,0,0,0,0,0,0,0,0,0,0,0,0,0,0,0,0,0,0
376,-0.25619534,-0.9290482,-0.70288,-1.0925094,0.68485504,-5.1713133,0.2100912,4.3605895,2.3092074,1,0,0,0,0,0,0,0,0,0,0,0,0,0,0,0,0,0,0,0,0
377,0.06782289,-0.97510237,-0.42673293,-1.6858617,-0.006501575,-4.53322,-7.873931,8.905981,5.9890957,1,0,0,0,0,0,0,0,0,0,0,0,0,0,0,0,0,0,0,0,0
378,0.2616008,-0.95669013,-0.3011609,-2.0448558,-1.8526049,-2.1757896,-4.57113,11.581502,7.4244194,1,0,0,0,0,0,0,0,0,0,0,0,0,0,0,0,0,0,0,0,0
379,0.38662085,-0.9194324,-0.25734544,-1.344977,-1.0866797,-1.4865634,0.018555064,9.255535,5.4887075,1,0,0,0,0,0,0,0,0,0,0,0,0,0,0,0,0,0,0,0,0
380,0.47780693,-0.9049706,-0.18970582,-0.8645428,0.4675411,-1.6229173,-3.1202433,9.265112,6.4152637,0,0,0,0,0,0,0,0,0,0,0,0,0,0,0,0,0,0,0,0,0
381,0.5612217,-0.88796437,-0.107393794,-0.35747692,0.5847202,-0.49586755,-3.8253357,10.641778,9.508572,0,0,0,0,0,0,0,0,0,0,0,0,0,0,0,0,0,0,0,0,0
382,0.56067526,-0.8857874,-0.10746838,0.13467525,-0.08426588,0.42345566,0.15741876,7.4718547,7.3071036,0,0,0,0,0,0,0,0,0,0,0,0,0,0,0,0,0,0,0,0,0
383,0.53749764,-0.88425696,-0.12728086,0.04199725,-0.32501563,-0.097458646,2.6964695,5.9515367,5.9759274,0,0,0,0,0,0,0,0,0,0,0,0,0,0,0,0,0,0,0,0,0
384,0.5680892,-0.888317,-0.112571664,0.07075939,-0.14179015,-0.6045245,-0.26515785,7.834576,5.9124813,0,0,0,0,0,0,0,0,0,0,0,0,0,0,0,0,0,0,0,0,0
385,0.58332074,-0.8947837,-0.10392274,0.19539534,-0.09598379,0.080440514,-0.30585927,8.291868,5.5605335,0,0,0,0,0,0,0,0,0,0,0,0,0,0,0,0,0,0,0,0,0
386,0.5670189,-0.8985066,-0.11714351,0.20924376,-0.105571166,0.1827059,1.5436616,6.644658,5.434838,0,0,0,0,0,0,0,0,0,0,0,0,0,0,0,0,0,0,0,0,0
387,0.57783395,-0.9079069,-0.11104459,0.101652056,-0.041655302,-0.3776232,0.19572599,7.738808,5.043386,0,0,0,0,0,0,0,0,0,0,0,0,0,0,0,0,0,0,0,0,0
388,0.59786093,-0.9110768,-0.09486739,-0.031505994,0.04250059,-0.09852391,-1.3245921,8.683321,5.142745,0,0,0,0,0,0,0,0,0,0,0,0,0,0,0,0,0,0,0,0,0
389,0.5944975,-0.91074765,-0.09489995,0.02495302,0.257684,0.32545134,0.28431144,7.4491096,5.852626,0,0,0,0,0,0,0,0,0,0,0,0,0,0,0,0,0,0,0,0,0
390,0.5861157,-0.91348505,-0.09495962,0.17089425,0.23744398,0.027177293,0.86131406,7.4000287,5.73531,0,0,0,0,0,0,0,0,0,0,0,0,0,0,0,0,0,0,0,0,0
391,0.5906419,-0.917271,-0.08796416,0.023887755,0.071262725,-0.096393384,0.27593175,7.822605,5.592855,0,0,0,0,0,0,0,0,0,0,0,0,0,0,0,0,0,0,0,0,0
392,0.593579,-0.91632944,-0.08528358,-0.05705716,0.04784795,0.13475062,0.41120413,7.6633906,5.899313,0,0,0,0,0,0,0,0,0,0,0,0,0,0,0,0,0,0,0,0,0
393,0.5855549,-0.91405106,-0.09074957,0.019641878,0.07447956,0.048464205,1.1869255,7.1139216,6.1100025,0,0,0,0,0,0,0,0,0,0,0,0,0,0,0,0,0,0,0,0,0
394,0.5892926,-0.9152519,-0.08816575,0.08568827,-0.042699527,-0.20826451,0.7918822,7.23842,5.887342,0,0,0,0,0,0,0,0,0,0,0,0,0,0,0,0,0,0,0,0,0
395,0.6076012,-0.9182178,-0.07866475,0.033490315,-0.19503234,-0.20932978,-0.23044191,8.005761,5.9926867,0,0,0,0,0,0,0,0,0,0,0,0,0,0,0,0,0,0,0,0,0
396,0.6135195,-0.9197318,-0.082953215,0.0249682,-0.25681767,-0.035691686,0.4914099,7.5688195,5.638345,0,0,0,0,0,0,0,0,0,0,0,0,0,0,0,0,0,0,0,0,0
397,0.6164101,-0.9204417,-0.085964926,0.11551568,-0.13963859,-0.21891716,0.84575176,7.1534257,5.852626,0,0,0,0,0,0,0,0,0,0,0,0,0,0,0,0,0,0,0,0,0
398,0.63402885,-0.9265169,-0.07470809,0.21565053,-0.064004816,-0.38190264,-0.43035775,8.070405,5.483919,0,0,0,0,0,0,0,0,0,0,0,0,0,0,0,0,0,0,0,0,0
399,0.6467477,-0.9351895,-0.06528097,0.20819367,0.011628959,0.021832595,-0.17058687,8.078785,5.3725886,0,0,0,0,0,0,0,0,0,0,0,0,0,0,0,0,0,0,0,0,0
400,0.6398916,-0.9427805,-0.06708178,0.22310738,0.1032417,-0.059127502,0.8230068,7.2695446,4.935647,0,0,0,0,0,0,0,0,0,0,0,0,0,0,0,0,0,0,0,0,0
401,0.65189135,-0.9492023,-0.052360583,0.066513516,0.102176435,-0.3318352,0.28790274,7.7232456,4.8123455,1,0,0,0,0,0,0,0,0,0,0,0,0,0,0,0,0,0,0,0,0
402,0.6702397,-0.9498662,-0.037217025,-0.07942771,-0.023524767,-0.17843711,-0.86131406,8.555231,5.243302,1,0,0,0,0,0,0,0,0,0,0,0,0,0,0,0,0,0,0,0,0
403,0.67218494,-0.9486431,-0.036300603,-0.07729719,0.053174272,0.13581589,-0.23163901,7.9818196,5.2241483,1,0,0,0,0,0,0,0,0,0,0,0,0,0,0,0,0,0,0,0,0
404,0.66990614,-0.9460056,-0.03573799,-0.015511848,0.17354915,0.05485579,-0.25677812,7.842956,6.089652,1,0,0,0,0,0,0,0,0,0,0,0,0,0,0,0,0,0,0,0,0
405,0.67774224,-0.9460211,-0.03029158,0.08249248,-0.060809024,0.19334017,-2.2140381,9.201665,7.144298,1,0,0,0,0,0,0,0,0,0,0,0,0,0,0,0,0,0,0,0,0
406,0.6653135,-0.9489308,-0.049329877,0.1954105,-0.38677993,0.8197157,-2.0679917,9.287857,6.528988,1,0,0,0,0,0,0,0,0,0,0,0,0,0,0,0,0,0,0,0,0
407,0.61308676,-0.954646,-0.10914789,0.65453947,-0.1630744,1.3321078,-1.762731,9.583541,9.871294,1,0,0,0,0,0,0,0,0,0,0,0,0,0,0,0,0,0,0,0,0
408,0.5523256,-0.9757372,-0.16989328,1.8082209,-0.51461166,2.4634187,-6.628946,11.175685,9.554062,1,0,0,0,0,0,0,0,0,0,0,0,0,0,0,0,0,0,0,0,0
409,0.3362919,-1.0098124,-0.36878756,2.306769,-0.13963246,4.136944,-1.9686323,7.417985,5.5126495,1,0,0,0,0,0,0,0,0,0,0,0,0,0,0,0,0,0,0,0,0
410,0.0656831,-1.0162568,-0.60192895,2.8138347,0.27262488,3.690598,0.27473465,6.954707,9.876082,1,0,0,0,0,0,0,0,0,0,0,0,0,0,0,0,0,0,0,0,0
411,-0.11810979,-1.002163,-0.801875,2.7488537,-2.502389,3.968632,-4.0240545,7.0229416,7.7213006,1,0,0,0,0,0,0,0,0,0,0,0,0,0,0,0,0,0,0,0,0
412,-0.41256595,-0.90537775,-1.1749994,2.1746762,-3.7210515,5.096747,4.5663414,4.1103954,-4.608838,1,0,0,0,0,0,0,0,0,0,0,0,0,0,0,0,0,0,0,0,0
413,-0.6296726,-0.7759377,-1.3461914,2.5081038,1.5647906,3.6032462,17.577631,2.0465934,-7.225701,1,0,0,0,0,0,0,0,0,0,0,0,0,0,0,0,0,0,0,0,0
414,-0.73859376,-0.72776926,-1.3480402,1.6207386,1.699014,1.4119973,9.348759,1.8466777,1.0378864,1,0,0,0,0,0,0,0,0,0,0,0,0,0,0,0,0,0,0,0,0
415,-0.81469107,-0.69290257,-1.3849319,1.2968982,0.41963136,1.418389,6.359598,3.5190275,-1.6950948,1,0,0,0,0,0,0,0,0,0,0,0,0,0,0,0,0,0,0,0,0
416,-0.8831851,-0.6538455,-1.3920507,1.1690664,1.3943483,1.4535427,10.174759,2.798373,-1.364695,1,0,0,0,0,0,0,0,0,0,0,0,0,0,0,0,0,0,0,0,0
417,-0.93209666,-0.6217787,-1.3811935,0.3083328,0.7956697,0.7568597,12.615647,2.360234,0.34715924,1,0,0,0,0,0,0,0,0,0,0,0,0,0,0,0,0,0,0,0,0
418,-0.9323016,-0.6167382,-1.3721542,-0.29247633,0.15224999,-0.46819437,8.243835,4.485088,0.7230489,1,0,0,0,0,0,0,0,0,0,0,0,0,0,0,0,0,0,0,0,0
419,-0.9180596,-0.6262764,-1.3603215,-0.41817755,0.027614051,-0.45328066,7.635708,5.234473,1.8387469,1,0,0,0,0,0,0,0,0,0,0,0,0,0,0,0,0,0,0,0,0
420,-0.8975503,-0.63574,-1.353707,-0.46504918,-0.22698414,-0.5321102,7.933786,5.872528,1.697489,1,0,0,0,0,0,0,0,0,0,0,0,0,0,0,0,0,0,0,0,0
421,-0.8615424,-0.6554824,-1.3438791,-0.4970071,-0.1833083,-0.68657357,6.449381,6.9247794,2.0350714,1,0,0,0,0,0,0,0,0,0,0,0,0,0,0,0,0,0,0,0,0
422,-0.8328512,-0.6702406,-1.3343099,-0.3563922,-0.09595662,-0.5118702,6.771401,7.1234984,2.2122424,1,0,0,0,0,0,0,0,0,0,0,0,0,0,0,0,0,0,0,0,0
423,-0.80839866,-0.68341213,-1.327732,-0.3148469,-0.3420327,-0.52252287,7.727885,6.528539,2.2254105,1,0,0,0,0,0,0,0,0,0,0,0,0,0,0,0,0,0,0,0,0
424,-0.7842262,-0.6999634,-1.3302821,-0.36917537,-0.6264583,-0.80162215,8.225879,5.765986,2.0147207,1,0,0,0,0,0,0,0,0,0,0,0,0,0,0,0,0,0,0,0,0
425,-0.7642237,-0.7198887,-1.333978,-0.29567212,-0.5337803,-1.0285234,7.4286094,5.849783,1.6747441,1,0,0,0,0,0,0,0,0,0,0,0,0,0,0,0,0,0,0,0,0
426,-0.7589651,-0.7503141,-1.3347977,-0.062394403,-0.05656288,-1.2532759,9.1272955,4.912453,0.24660277,1,0,0,0,0,0,0,0,0,0,0,0,0,0,0,0,0,0,0,0,0
427,-0.76226425,-0.78131175,-1.322913,-0.24455462,0.42174086,-2.2610161,11.084556,3.8422449,-0.4237737,1,0,0,0,0,0,0,0,0,0,0,0,0,0,0,0,0,0,0,0,0
428,-0.71968865,-0.8604051,-1.2716599,-0.65042037,0.29817018,-3.1643603,7.6788034,4.5269866,0.3196259,1,0,0,0,0,0,0,0,0,0,0,0,0,0,0,0,0,0,0,0,0
429,-0.65266025,-0.9317704,-1.2090292,-1.0669388,0.22040588,-3.5872703,5.1182046,4.8813286,0.4165911,1,0,0,0,0,0,0,0,0,0,0,0,0,0,0,0,0,0,0,0,0
430,-0.49305013,-1.0241504,-1.0693341,-1.6475079,0.009483516,-3.8610432,3.7606924,5.233276,0.8451532,1,0,0,0,0,0,0,0,0,0,0,0,0,0,0,0,0,0,0,0,0
431,-0.26607436,-1.0856313,-0.8717038,-1.8190154,0.5932484,-4.016572,-1.0971429,7.438336,2.6013002,1,0,0,0,0,0,0,0,0,0,0,0,0,0,0,0,0,0,0,0,0
432,0.10199511,-1.1222177,-0.52521956,-1.3950402,0.24171115,-2.5092227,-5.2822075,11.530026,6.564901,0,0,0,0,0,0,0,0,0,0,0,0,0,0,0,0,0,0,0,0,0
433,0.22858845,-1.1160032,-0.424081,-1.196901,-0.5380624,-1.5547457,0.5967548,9.471013,3.690662,0,0,0,0,0,0,0,0,0,0,0,0,0,0,0,0,0,0,0,0,0
434,0.37447447,-1.0973161,-0.31106701,-1.8232765,-0.44005808,-2.2429066,-0.046088383,7.9578776,3.6583402,0,0,0,0,0,0,0,0,0,0,0,0,0,0,0,0,0,0,0,0,0
435,0.5713804,-1.0464151,-0.1559035,-1.7029016,-0.51462656,-1.2681895,-6.2207346,12.285398,8.669404,0,0,0,0,0,0,0,0,0,0,0,0,0,0,0,0,0,0,0,0,0
436,0.6128969,-1.016783,-0.14028114,-0.58437395,-0.42940542,0.2924228,-1.6801311,9.982175,7.9511437,0,0,0,0,0,0,0,0,0,0,0,0,0,0,0,0,0,0,0,0,0
437,0.5872719,-1.0116409,-0.1666419,0.25079334,0.11707523,0.108132064,2.0572178,7.049278,5.461174,0,0,0,0,0,0,0,0,0,0,0,0,0,0,0,0,0,0,0,0,0
438,0.6160842,-1.0211891,-0.13549776,0.24227123,0.48246092,-0.7515363,-0.6374562,8.581567,5.035006,0,0,0,0,0,0,0,0,0,0,0,0,0,0,0,0,0,0,0,0,0
439,0.66265404,-1.028143,-0.086590946,0.07182892,0.049963564,-0.09639871,-2.7575219,10.343699,5.2887917,0,0,0,0,0,0,0,0,0,0,0,0,0,0,0,0,0,0,0,0,0
440,0.63063097,-1.0267467,-0.12050888,-0.078373365,-0.27174628,0.68657064,0.5919664,7.996185,4.223372,0,0,0,0,0,0,0,0,0,0,0,0,0,0,0,0,0,0,0,0,0
441,0.60098475,-1.0231915,-0.14704941,-0.08263443,-0.08958607,0.07617413,1.4754268,7.480234,4.2640734,0,0,0,0,0,0,0,0,0,0,0,0,0,0,0,0,0,0,0,0,0
442,0.61060977,-1.0204202,-0.14367104,-0.119942114,-0.1354252,-0.25615934,0.5847838,7.9411182,4.6926355,0,0,0,0,0,0,0,0,0,0,0,0,0,0,0,0,0,0,0,0,0
443,0.6289035,-1.0206016,-0.13203284,0.12719923,-0.013985057,-0.15389396,-0.09636662,8.633042,5.386954,0,0,0,0,0,0,0,0,0,0,0,0,0,0,0,0,0,0,0,0,0
444,0.62507623,-1.0326194,-0.12954983,0.41801643,0.20972048,0.013352557,0.86610246,8.447492,4.4460325,0,0,0,0,0,0,0,0,0,0,0,0,0,0,0,0,0,0,0,0,0
445,0.62713826,-1.0366101,-0.12709069,0.023868581,0.04566975,-0.12726235,0.98102415,7.9830165,5.6084175,0,0,0,0,0,0,0,0,0,0,0,0,0,0,0,0,0,0,0,0,0
446,0.64847136,-1.0401636,-0.116226025,0.28911942,-0.22916847,-0.3115531,0.078410104,8.267926,5.591658,0,0,0,0,0,0,0,0,0,0,0,0,0,0,0,0,0,0,0,0,0
447,0.66459656,-1.0546799,-0.110522516,0.33279526,-0.31012857,-0.20183086,-0.030526072,8.664167,4.023456,0,0,0,0,0,0,0,0,0,0,0,0,0,0,0,0,0,0,0,0,0
448,0.66289735,-1.0604081,-0.119042926,0.17513613,-0.30373698,0.039984167,0.44113165,8.035689,4.1359835,0,0,0,0,0,0,0,0,0,0,0,0,0,0,0,0,0,0,0,0,0
449,0.65764284,-1.0693426,-0.124803655,0.3498395,0.05951819,-0.16667713,1.1055226,7.6574054,4.0162735,0,0,0,0,0,0,0,0,0,0,0,0,0,0,0,0,0,0,0,0,0
450,0.671152,-1.08139,-0.1086154,0.42014694,0.19267625,-0.21354876,-0.15861586,8.74557,4.286818,0,0,0,0,0,0,0,0,0,0,0,0,0,0,0,0,0,0,0,0,0
451,0.6766524,-1.0965832,-0.09926341,0.37114477,-0.06937881,0.041049432,-0.19812019,9.15019,3.9719806,0,0,0,0,0,0,0,0,0,0,0,0,0,0,0,0,0,0,0,0,0
452,0.663738,-1.1029187,-0.120217405,0.19218037,-0.2973454,0.19977383,0.46148238,8.015338,4.644751,0,0,0,0,0,0,0,0,0,0,0,0,0,0,0,0,0,0,0,0,0
453,0.65959406,-1.1133611,-0.13429521,0.59165454,-0.3985455,-0.15495922,0.40043023,7.6873326,4.0078936,0,0,0,0,0,0,0,0,0,0,0,0,0,0,0,0,0,0,0,0,0
454,0.68805075,-1.1375415,-0.10303285,0.5628924,0.37590173,-0.51608384,-0.16220717,9.289054,3.0621839,0,0,0,0,0,0,0,0,0,0,0,0,0,0,0,0,0,0,0,0,0
455,0.7092094,-1.1530887,-0.06718087,0.46488807,0.6944158,-0.30303097,-0.15023616,8.971822,3.2860417,0,0,0,0,0,0,0,0,0,0,0,0,0,0,0,0,0,0,0,0,0
456,0.7366113,-1.1624343,-0.023756884,0.1730056,0.43768707,-0.35949,-0.15981296,8.135049,3.7732618,0,0,0,0,0,0,0,0,0,0,0,0,0,0,0,0,0,0,0,0,0
457,0.77362,-1.1645083,0.014490092,-0.0815926,0.04034343,-0.57573867,-0.6745663,8.7192335,3.3961751,0,0,0,0,0,0,0,0,0,0,0,0,0,0,0,0,0,0,0,0,0
458,0.8221761,-1.1563922,0.055328615,-0.38199717,-0.20466739,-0.43618903,-0.84694886,9.618257,3.513491,1,0,0,0,0,0,0,0,0,0,0,0,0,0,0,0,0,0,0,0,0
459,0.8458376,-1.1405747,0.06780288,-0.54922664,-0.28879958,-0.26576775,-0.38486794,8.582765,3.4524388,1,0,0,0,0,0,0,0,0,0,0,0,0,0,0,0,0,0,0,0,0
460,0.86455613,-1.1249524,0.07672826,-0.38943696,-0.06722458,-0.35418472,-0.41718966,8.429535,4.4220905,1,0,0,0,0,0,0,0,0,0,0,0,0,0,0,0,0,0,0,0,0
461,0.8934519,-1.1167889,0.104845226,-0.11459875,0.26726845,-0.34779313,-0.65541273,8.949077,3.965995,1,0,0,0,0,0,0,0,0,0,0,0,0,0,0,0,0,0,0,0,0
462,0.917582,-1.1125095,0.13162905,-0.06559659,0.418536,-0.19439505,-1.572392,9.198074,5.067328,1,0,0,0,0,0,0,0,0,0,0,0,0,0,0,0,0,0,0,0,0
463,0.9296069,-1.1119472,0.1465742,0.13893418,0.10854405,0.33397612,-4.040814,10.908731,5.6347537,1,0,0,0,0,0,0,0,0,0,0,0,0,0,0,0,0,0,0,0,0
464,0.89793205,-1.1158345,0.11327061,0.44359982,-0.32821435,2.109772,-13.532626,17.022326,8.093599,1,0,0,0,0,0,0,0,0,0,0,0,0,0,0,0,0,0,0,0,0
465,0.6023507,-1.1205697,-0.18861696,0.42442504,-1.430763,5.7774777,-6.5247984,8.506149,4.495114,1,0,0,0,0,0,0,0,0,0,0,0,0,0,0,0,0,0,0,0,0
466,0.24510792,-1.0451131,-0.5686883,0.09845413,-1.4659168,5.54525,-1.8249803,6.3130608,5.258864,1,0,0,0,0,0,0,0,0,0,0,0,0,0,0,0,0,0,0,0,0
467,0.03165191,-0.96783006,-0.77055216,2.1586754,0.12239249,6.5210323,-3.493739,4.947169,6.75524,1,0,0,0,0,0,0,0,0,0,0,0,0,0,0,0,0,0,0,0,0
468,-0.35373473,-0.830818,-1.0302793,2.5570843,-0.22062266,6.209975,5.585074,0.28326398,3.3686419,1,0,0,0,0,0,0,0,0,0,0,0,0,0,0,0,0,0,0,0,0
469,-0.5504301,-0.72364134,-1.1685835,2.4601455,-0.06509405,4.6664066,13.371018,0.4592378,-2.1092918,1,0,0,0,0,0,0,0,0,0,0,0,0,0,0,0,0,0,0,0,0
470,-0.7206646,-0.6187894,-1.2390912,1.5067337,1.4422551,2.8021939,15.108011,-1.3172598,-1.3060371,1,0,0,0,0,0,0,0,0,0,0,0,0,0,0,0,0,0,0,0,0
471,-0.80170834,-0.57062435,-1.229684,0.9272299,1.4390594,1.5398555,8.467693,0.63640875,2.6551697,1,0,0,0,0,0,0,0,0,0,0,0,0,0,0,0,0,0,0,0,0
472,-0.87460923,-0.52644396,-1.2260029,0.589541,0.53464985,1.0562254,13.010691,-0.030376434,1.6567876,1,0,0,0,0,0,0,0,0,0,0,0,0,0,0,0,0,0,0,0,0
473,-0.9082005,-0.51577616,-1.2277153,0.25611326,0.22039682,-0.32009625,12.328343,1.7724575,1.7010803,1,0,0,0,0,0,0,0,0,0,0,0,0,0,0,0,0,0,0,0,0
474,-0.892894,-0.54044443,-1.2214817,-0.1337735,0.05741136,-0.8964043,6.1129956,5.724087,2.0111294,1,0,0,0,0,0,0,0,0,0,0,0,0,0,0,0,0,0,0,0,0
475,-0.8546377,-0.5597463,-1.2108891,-0.63551307,-0.30690908,-0.35951102,5.5766945,7.0552635,2.9137435,1,0,0,0,0,0,0,0,0,0,0,0,0,0,0,0,0,0,0,0,0
476,-0.8295926,-0.55996686,-1.2091511,-0.41820765,-0.24407046,-0.10596771,8.333617,6.7847185,3.2273839,1,0,0,0,0,0,0,0,0,0,0,0,0,0,0,0,0,0,0,0,0
477,-0.80729467,-0.56807464,-1.2076936,-0.07412723,-0.11836925,-0.44685233,7.6333137,6.7356377,3.2860417,1,0,0,0,0,0,0,0,0,0,0,0,0,0,0,0,0,0,0,0,0
478,-0.7904491,-0.5857013,-1.2054332,0.12507722,-0.07682394,-0.2828016,5.6257753,6.704513,3.169923,1,0,0,0,0,0,0,0,0,0,0,0,0,0,0,0,0,0,0,0,0
479,-0.79491186,-0.58788043,-1.213142,0.10377193,-0.18121986,-0.021811822,8.33242,5.351789,2.134431,1,0,0,0,0,0,0,0,0,0,0,0,0,0,0,0,0,0,0,0,0
480,-0.7973335,-0.5923736,-1.2203368,0.057965565,-0.16737142,-0.30517215,8.823232,4.8597803,2.3427265,1,0,0,0,0,0,0,0,0,0,0,0,0,0,0,0,0,0,0,0,0
481,-0.7962798,-0.6020603,-1.2258451,-0.051756673,-0.32716107,-0.6247515,8.544308,4.7065516,2.0913353,1,0,0,0,0,0,0,0,0,0,0,0,0,0,0,0,0,0,0,0,0
482,-0.7824743,-0.6242151,-1.228965,-0.09010619,-0.14073981,-0.8452612,7.518392,4.9088616,1.9129672,1,0,0,0,0,0,0,0,0,0,0,0,0,0,0,0,0,0,0,0,0
483,-0.7876601,-0.642254,-1.2224761,0.19431941,0.5804442,-1.1190342,9.778519,4.1726446,1.2641385,1,0,0,0,0,0,0,0,0,0,0,0,0,0,0,0,0,0,0,0,0
484,-0.78315365,-0.68933725,-1.1891282,0.26782265,0.789236,-2.0021384,9.590573,4.6107836,2.753332,1,0,0,0,0,0,0,0,0,0,0,0,0,0,0,0,0,0,0,0,0
485,-0.7485553,-0.7591923,-1.1613505,-0.3265949,-0.49866864,-2.7148004,7.7829514,4.5377603,2.043451,1,0,0,0,0,0,0,0,0,0,0,0,0,0,0,0,0,0,0,0,0
486,-0.7015503,-0.81562203,-1.1436343,-0.8432481,-0.69361204,-3.285782,7.137714,3.9308302,-0.39504328,1,0,0,0,0,0,0,0,0,0,0,0,0,0,0,0,0,0,0,0,0
487,-0.5897,-0.90607905,-1.0504574,-0.9764062,0.85102135,-3.7619553,5.191228,4.9292126,0.142455,1,0,0,0,0,0,0,0,0,0,0,0,0,0,0,0,0,0,0,0,0
488,-0.45261768,-0.9736681,-0.91109705,-1.1021074,1.2792577,-4.132667,2.6689363,4.8825254,2.384625,1,0,0,0,0,0,0,0,0,0,0,0,0,0,0,0,0,0,0,0,0
489,-0.18712738,-1.0474334,-0.6610082,-1.293855,0.62838113,-4.2700863,0.2208651,5.4750905,3.004723,1,0,0,0,0,0,0,0,0,0,0,0,0,0,0,0,0,0,0,0,0
490,0.07330005,-1.0687889,-0.43679062,-1.8232914,-0.20145988,-3.873808,-3.4805708,8.261941,3.764882,1,0,0,0,0,0,0,0,0,0,0,0,0,0,0,0,0,0,0,0,0
491,0.34919837,-1.0393993,-0.21282335,-2.035279,-0.2962684,-2.6807117,-3.4793737,10.286239,6.269217,1,0,0,0,0,0,0,0,0,0,0,0,0,0,0,0,0,0,0,0,0
492,0.5159532,-0.98848325,-0.08877667,-1.4962445,-0.39106175,-1.6101341,-5.269039,11.30138,9.348161,1,0,0,0,0,0,0,0,0,0,0,0,0,0,0,0,0,0,0,0,0
493,0.5805544,-0.9599912,-0.06072294,-0.81127954,-0.7724264,-0.5810887,-3.3512838,9.99654,8.860941,1,0,0,0,0,0,0,0,0,0,0,0,0,0,0,0,0,0,0,0,0
494,0.6222956,-0.94722,-0.05143955,0.05158463,-0.21529314,-0.5214339,-0.66498953,8.04766,7.7069354,1,0,0,0,0,0,0,0,0,0,0,0,0,0,0,0,0,0,0,0,0
495,0.6680461,-0.95843565,-0.014470681,0.6428064,0.25874954,-0.735552,-2.8892028,9.535657,6.64391,1,0,0,0,0,0,0,0,0,0,0,0,0,0,0,0,0,0,0,0,0
496,0.6947949,-0.983034,0.011227893,0.669438,-0.037393976,0.1976196,-2.284667,9.770288,5.1942205,1,0,0,0,0,0,0,0,0,0,0,0,0,0,0,0,0,0,0,0,0
497,0.6621555,-1.0011152,-0.022716165,0.43401456,-0.34951645,0.50122,0.3477578,7.2551794,4.271256,0,0,0,0,0,0,0,0,0,0,0,0,0,0,0,0,0,0,0,0,0
498,0.6442588,-1.0123205,-0.043345656,0.34240183,-0.37295228,0.0388952,0.6422446,7.6035357,3.6332011,0,0,0,0,0,0,0,0,0,0,0,0,0,0,0,0,0,0,0,0,0
499,0.647564,-1.0248688,-0.045196507,0.24333222,-0.12900671,-0.10811129,-0.1921347,8.404396,3.4883518,0,0,0,0,0,0,0,0,0,0,0,0,0,0,0,0,0,0,0,0,0
500,0.6425552,-1.0317892,-0.046010032,0.14000158,0.0680672,0.1315732,0.050876785,8.224831,3.7780502,0,0,0,0,0,0,0,0,0,0,0,0,0,0,0,0,0,0,0,0,0
501,0.6262328,-1.032938,-0.055030897,-0.026179673,-0.002240251,0.05274364,0.908001,7.5029793,4.343082,0,0,0,0,0,0,0,0,0,0,0,0,0,0,0,0,0,0,0,0,0
502,0.6339428,-1.0311964,-0.049566597,-0.12844506,-0.0906572,-0.2998589,0.13587095,7.9913964,4.6603136,0,0,0,0,0,0,0,0,0,0,0,0,0,0,0,0,0,0,0,0,0
503,0.6602422,-1.0268799,-0.032602906,-0.16572931,-0.17481309,-0.16350505,-1.1546037,9.111883,5.044583,0,0,0,0,0,0,0,0,0,0,0,0,0,0,0,0,0,0,0,0,0
504,0.66323143,-1.0206722,-0.037779916,-0.14548929,-0.10130984,0.11452898,-0.3369839,8.405593,5.5629277,0,0,0,0,0,0,0,0,0,0,0,0,0,0,0,0,0,0,0,0,0
505,0.66291755,-1.0201505,-0.040869866,0.101652056,-0.017153952,0.008002533,-0.0077811554,8.17575,5.3354783,0,0,0,0,0,0,0,0,0,0,0,0,0,0,0,0,0,0,0,0,0
506,0.67030144,-1.0253992,-0.035399426,0.16876371,-1.09722234E-4,-0.1017197,-0.24720132,8.363695,5.103241,0,0,0,0,0,0,0,0,0,0,0,0,0,0,0,0,0,0,0,0,0
507,0.67686963,-1.0290886,-0.032534946,0.12295735,-0.09704878,-0.005845905,-0.3309984,8.528894,5.159505,0,0,0,0,0,0,0,0,0,0,0,0,0,0,0,0,0,0,0,0,0
508,0.67239976,-1.0344923,-0.042143524,0.19646059,-0.23020683,0.083636306,0.19931729,8.083573,4.7919946,0,0,0,0,0,0,0,0,0,0,0,0,0,0,0,0,0,0,0,0,0
509,0.6658642,-1.0399818,-0.051051788,0.19645233,-0.18973878,-0.08146929,0.65182143,7.7232456,4.2700586,0,0,0,0,0,0,0,0,0,0,0,0,0,0,0,0,0,0,0,0,0
510,0.67872465,-1.0472757,-0.042601313,0.15490702,-0.053384926,-0.30410954,0.05566519,8.16737,4.176685,0,0,0,0,0,0,0,0,0,0,0,0,0,0,0,0,0,0,0,0,0
511,0.6982201,-1.0528431,-0.024905404,0.12827541,0.032901492,-0.23912843,-0.22924481,8.473828,4.4196963,0,0,0,0,0,0,0,0,0,0,0,0,0,0,0,0,0,0,0,0,0
512,0.70916206,-1.056469,-0.014862971,0.10057854,-0.041667018,-0.21249682,-0.15382746,8.229619,4.357447,0,0,0,0,0,0,0,0,0,0,0,0,0,0,0,0,0,0,0,0,0
513,0.727316,-1.0577847,-0.0027338066,-0.07732062,-0.19613037,-0.2796085,-0.29987377,8.317008,4.0976763,0,0,0,0,0,0,0,0,0,0,0,0,0,0,0,0,0,0,0,0,0
514,0.7453996,-1.0543766,0.007791806,-0.19876076,-0.16310716,-0.29239166,-0.5823896,8.4726305,4.3478703,0,0,0,0,0,0,0,0,0,0,0,0,0,0,0,0,0,0,0,0,0
515,0.7679839,-1.05001,0.02381749,-6.215818E-4,0.06592469,-0.17521256,-1.027711,8.843732,5.117606,0,0,0,0,0,0,0,0,0,0,0,0,0,0,0,0,0,0,0,0,0
516,0.7760358,-1.0532671,0.03214186,0.09631748,0.024379374,-0.02287975,-0.6961141,8.55164,4.4017396,1,0,0,0,0,0,0,0,0,0,0,0,0,0,0,0,0,0,0,0,0
517,0.77954996,-1.0526085,0.032694783,-0.11034382,-0.088538654,-0.031401865,-0.3705027,8.20448,4.6591167,1,0,0,0,0,0,0,0,0,0,0,0,0,0,0,0,0,0,0,0,0
518,0.7878601,-1.0496844,0.03624813,-0.026187928,-0.016100673,-0.08146929,-0.5967548,8.49777,4.9548006,1,0,0,0,0,0,0,0,0,0,0,0,0,0,0,0,0,0,0,0,0
519,0.7918166,-1.0518138,0.04007419,0.11229645,0.060598366,0.06873299,-0.7332243,8.688109,4.7896004,1,0,0,0,0,0,0,0,0,0,0,0,0,0,0,0,0,0,0,0,0
520,0.78727555,-1.0542606,0.034497105,0.0015089471,-0.11090921,0.12199622,-0.64583594,8.384046,4.6160207,1,0,0,0,0,0,0,0,0,0,0,0,0,0,0,0,0,0,0,0,0
521,0.78331554,-1.0521735,0.025700755,-0.10714802,-0.19080403,0.10069092,-0.3657143,8.346935,4.811148,1,0,0,0,0,0,0,0,0,0,0,0,0,0,0,0,0,0,0,0,0
522,0.7876244,-1.0481666,0.019954337,-0.10395223,-0.24726306,0.14543203,-2.0787656,9.419538,5.626374,1,0,0,0,0,0,0,0,0,0,0,0,0,0,0,0,0,0,0,0,0
523,0.7585647,-1.0438422,-0.025379933,0.01429212,-0.7394152,1.2884607,-5.8065376,12.290186,6.609194,1,0,0,0,0,0,0,0,0,0,0,0,0,0,0,0,0,0,0,0,0
524,0.65601224,-1.0440004,-0.13339862,0.6427981,-0.12262712,2.8181806,-2.2631192,9.669732,7.303512,1,0,0,0,0,0,0,0,0,0,0,0,0,0,0,0,0,0,0,0,0
525,0.45774826,-1.0591465,-0.30150723,1.6377552,0.34289345,3.2890275,-4.1892543,9.822961,6.1758432,1,0,0,0,0,0,0,0,0,0,0,0,0,0,0,0,0,0,0,0,0
526,0.2648099,-1.0566456,-0.46164677,1.798597,0.4962734,4.8581777,-7.1820064,9.830143,4.0306387,1,0,0,0,0,0,0,0,0,0,0,0,0,0,0,0,0,0,0,0,0
527,-0.08822745,-0.977845,-0.7437293,1.9583867,1.3495502,6.956749,-2.156577,4.203769,6.3182983,1,0,0,0,0,0,0,0,0,0,0,0,0,0,0,0,0,0,0,0,0
528,-0.39595073,-0.87247545,-0.92852384,2.1203067,0.20971727,5.909594,7.627328,1.0039186,5.085284,1,0,0,0,0,0,0,0,0,0,0,0,0,0,0,0,0,0,0,0,0
529,-0.6319232,-0.7610223,-1.1013919,2.03189,-0.14608105,4.1710825,9.252991,3.2209494,0.8798691,1,0,0,0,0,0,0,0,0,0,0,0,0,0,0,0,0,0,0,0,0
530,-0.8227005,-0.6748509,-1.170817,2.744552,2.283787,3.4435067,8.126519,2.3638253,1.4903905,1,0,0,0,0,0,0,0,0,0,0,0,0,0,0,0,0,0,0,0,0
531,-0.95802146,-0.6176987,-1.1767538,2.2289639,2.3583555,2.933245,11.027095,1.5964836,2.304419,1,0,0,0,0,0,0,0,0,0,0,0,0,0,0,0,0,0,0,0,0
532,-1.0668845,-0.55262727,-1.1849076,0.9772781,0.8648549,1.8424143,13.573328,0.74773914,1.8854338,1,0,0,0,0,0,0,0,0,0,0,0,0,0,0,0,0,0,0,0,0
533,-1.1158069,-0.53096604,-1.1839066,0.9953876,1.244089,0.5406611,9.695918,2.360234,1.4867992,1,0,0,0,0,0,0,0,0,0,0,0,0,0,0,0,0,0,0,0,0
534,-1.1454512,-0.5296825,-1.160047,0.5309323,0.99801296,0.3616967,6.9318123,4.09603,2.801216,1,0,0,0,0,0,0,0,0,0,0,0,0,0,0,0,0,0,0,0,0
535,-1.158457,-0.51559293,-1.1577096,-0.32127923,0.023296002,0.2562355,10.064626,3.2341175,2.505532,1,0,0,0,0,0,0,0,0,0,0,0,0,0,0,0,0,0,0,0,0
536,-1.1412327,-0.51226246,-1.1481211,-0.3670856,0.30346054,-0.29344094,8.053496,4.483891,3.0059202,1,0,0,0,0,0,0,0,0,0,0,0,0,0,0,0,0,0,0,0,0
537,-1.1127368,-0.51779884,-1.1283078,-0.35962874,0.27682894,-0.21461137,6.736685,5.408053,3.5434184,1,0,0,0,0,0,0,0,0,0,0,0,0,0,0,0,0,0,0,0,0
538,-1.0966932,-0.5161939,-1.1199032,-0.36175928,0.05418867,-0.093171224,8.249821,5.0752587,3.752911,1,0,0,0,0,0,0,0,0,0,0,0,0,0,0,0,0,0,0,0,0
539,-1.0746049,-0.51785195,-1.114762,-0.3372582,-0.18549582,-0.34350836,8.486847,5.1530704,4.000711,1,0,0,0,0,0,0,0,0,0,0,0,0,0,0,0,0,0,0,0,0
540,-1.0568088,-0.5236482,-1.1146575,-0.31488764,-0.37830868,-0.56188756,8.476072,4.761618,4.047398,1,0,0,0,0,0,0,0,0,0,0,0,0,0,0,0,0,0,0,0,0
541,-1.0246928,-0.5392977,-1.1172758,-0.26695073,-0.4827046,-0.761092,6.9545574,4.874146,4.2173862,1,0,0,0,0,0,0,0,0,0,0,0,0,0,0,0,0,0,0,0,0
542,-1.0030661,-0.55952096,-1.1225508,0.007913317,-0.37401167,-0.6652499,7.307702,5.089624,3.7565024,1,0,0,0,0,0,0,0,0,0,0,0,0,0,0,0,0,0,0,0,0
543,-0.9991245,-0.5714442,-1.1323018,-0.078373104,-0.66802466,-0.8569975,9.809643,4.1139865,3.5087025,1,0,0,0,0,0,0,0,0,0,0,0,0,0,0,0,0,0,0,0,0
544,-0.9755326,-0.6039504,-1.1495861,-0.26905543,-1.1346105,-1.6037478,9.68275,4.01343,3.4464533,1,0,0,0,0,0,0,0,0,0,0,0,0,0,0,0,0,0,0,0,0
545,-0.9467767,-0.6419937,-1.164909,-0.45760724,-1.466973,-2.172599,8.436568,4.210952,2.72939,1,0,0,0,0,0,0,0,0,0,0,0,0,0,0,0,0,0,0,0,0
546,-0.8880391,-0.70364475,-1.1792114,-0.8357761,-1.6906785,-2.6157491,7.675212,4.222923,2.147599,1,0,0,0,0,0,0,0,0,0,0,0,0,0,0,0,0,0,0,0,0
547,-0.8305611,-0.7563254,-1.1766685,-1.0030227,-1.3348802,-3.0802045,7.2969284,4.403685,1.6891093,1,0,0,0,0,0,0,0,0,0,0,0,0,0,0,0,0,0,0,0,0
548,-0.7429844,-0.8408777,-1.1360968,-0.85814667,-0.64991516,-3.7129714,7.385514,3.9487867,1.6747441,1,0,0,0,0,0,0,0,0,0,0,0,0,0,0,0,0,0,0,0,0
549,-0.60704476,-0.9486319,-1.0392534,-0.956151,-0.4304707,-4.5257683,4.6046486,4.2420764,1.5777789,1,0,0,0,0,0,0,0,0,0,0,0,0,0,0,0,0,0,0,0,0
550,-0.42055848,-1.0307063,-0.90419656,-1.5079579,-0.60304356,-4.870914,1.5077485,4.521001,2.0494366,1,0,0,0,0,0,0,0,0,0,0,0,0,0,0,0,0,0,0,0,0
551,-0.06218985,-1.1020287,-0.617527,-1.7604257,-0.4752118,-4.73243,-1.4000094,6.3310175,3.5697548,1,0,0,0,0,0,0,0,0,0,0,0,0,0,0,0,0,0,0,0,0
552,0.23914926,-1.1122296,-0.3655297,-1.7487078,-0.55723715,-3.8674347,-6.8719573,10.964994,5.7508726,1,0,0,0,0,0,0,0,0,0,0,0,0,0,0,0,0,0,0,0,0
553,0.48027816,-1.0806754,-0.18902855,-1.5580254,-1.2912043,-1.5259836,-5.547964,13.132944,6.3865333,1,0,0,0,0,0,0,0,0,0,0,0,0,0,0,0,0,0,0,0,0
554,0.5519787,-1.0441755,-0.16819327,-1.4504337,-1.1953305,-0.6524667,-1.2228385,9.292645,6.7851677,1,0,0,0,0,0,0,0,0,0,0,0,0,0,0,0,0,0,0,0,0
555,0.63451433,-1.0142161,-0.12772167,-0.32338393,-0.19398199,-0.9922861,-2.416348,9.751135,8.066066,1,0,0,0,0,0,0,0,0,0,0,0,0,0,0,0,0,0,0,0,0
556,0.69357055,-1.0303415,-0.07309439,0.6950089,0.32160598,-0.51611286,-2.5420437,10.337714,5.825093,1,0,0,0,0,0,0,0,0,0,0,0,0,0,0,0,0,0,0,0,0
557,0.7040854,-1.0485218,-0.060605988,0.538415,-0.03525759,0.021845644,-0.74639237,8.752752,4.1706996,1,0,0,0,0,0,0,0,0,0,0,0,0,0,0,0,0,0,0,0,0
558,0.69847506,-1.0587356,-0.07398627,0.050523896,-0.4784076,0.007997206,0.13467385,8.135049,3.6044707,1,0,0,0,0,0,0,0,0,0,0,0,0,0,0,0,0,0,0,0,0
559,0.7041682,-1.0604533,-0.08050589,0.005759086,-0.40067604,0.029331524,-0.57879823,8.862885,3.6032736,0,0,0,0,0,0,0,0,0,0,0,0,0,0,0,0,0,0,0,0,0
560,0.69052494,-1.066826,-0.094351776,0.23798673,0.14793514,0.32973608,-0.089184016,8.701277,3.5422213,0,0,0,0,0,0,0,0,0,0,0,0,0,0,0,0,0,0,0,0,0
561,0.66122204,-1.0748316,-0.107296996,0.21881197,0.34820485,0.27966866,0.76434886,7.950695,3.8869865,0,0,0,0,0,0,0,0,0,0,0,0,0,0,0,0,0,0,0,0,0
562,0.65592295,-1.0759233,-0.106793985,-0.06561363,0.08082347,-0.031388547,0.55725044,8.239196,4.1419687,0,0,0,0,0,0,0,0,0,0,0,0,0,0,0,0,0,0,0,0,0
563,0.66070694,-1.0722233,-0.10261605,-0.14018214,-0.04807352,-0.022866433,0.3453636,8.471434,4.346673,0,0,0,0,0,0,0,0,0,0,0,0,0,0,0,0,0,0,0,0,0
564,0.659675,-1.0685447,-0.1037433,-0.19344537,-0.016115587,0.013352557,0.4878186,8.302643,4.3777976,0,0,0,0,0,0,0,0,0,0,0,0,0,0,0,0,0,0,0,0,0
565,0.6603564,-1.0606731,-0.1048495,-0.21155486,-0.06298722,0.0016346483,0.5931635,8.232014,4.8003745,0,0,0,0,0,0,0,0,0,0,0,0,0,0,0,0,0,0,0,0,0
566,0.6663133,-1.0554667,-0.10306256,-0.17746639,-0.09174936,-0.15602449,0.6183026,8.024915,4.945224,0,0,0,0,0,0,0,0,0,0,0,0,0,0,0,0,0,0,0,0,0
567,0.6867003,-1.05269,-0.08899546,-0.0080893515,-0.008658736,-0.2902478,0.11432313,8.37806,4.9284644,0,0,0,0,0,0,0,0,0,0,0,0,0,0,0,0,0,0,0,0,0
568,0.70908594,-1.0557048,-0.06985152,0.11761185,0.07230136,-0.1975698,-0.41479546,8.837747,4.983531,0,0,0,0,0,0,0,0,0,0,0,0,0,0,0,0,0,0,0,0,0
569,0.7184341,-1.0598164,-0.061813448,0.11974238,-0.01931138,-0.09850021,-0.19093758,8.554034,4.6579194,0,0,0,0,0,0,0,0,0,0,0,0,0,0,0,0,0,0,0,0,0
570,0.72982085,-1.0618979,-0.057434045,-0.0070240875,-0.2099937,-0.111283384,-0.41599256,8.59713,4.44723,0,0,0,0,0,0,0,0,0,0,0,0,0,0,0,0,0,0,0,0,0
571,0.736039,-1.062497,-0.057094097,-0.02193779,-0.16631787,-0.037780136,-0.24241292,8.629451,4.2054152,0,0,0,0,0,0,0,0,0,0,0,0,0,0,0,0,0,0,0,0,0
572,0.7371937,-1.06427,-0.057410408,0.09843709,0.06484451,0.021874672,0.020949265,8.442703,4.4484267,0,0,0,0,0,0,0,0,0,0,0,0,0,0,0,0,0,0,0,0,0
573,0.7351592,-1.0688149,-0.056059234,0.15702663,0.08082347,-0.007952732,0.26276365,8.216452,4.2102036,0,0,0,0,0,0,0,0,0,0,0,0,0,0,0,0,0,0,0,0,0
574,0.73701,-1.0714823,-0.053461354,-0.052830458,-0.06937881,-0.080390714,0.27593175,8.355315,4.200627,0,0,0,0,0,0,0,0,0,0,0,0,0,0,0,0,0,0,0,0,0
575,0.74517447,-1.0671532,-0.050266176,-0.14018214,-0.09920621,-0.1166097,0.27114335,8.2655325,4.6519337,1,0,0,0,0,0,0,0,0,0,0,0,0,0,0,0,0,0,0,0,0
576,0.75571334,-1.0654132,-0.0438062,0.049428537,-0.0022762038,-0.14429885,-0.022146367,8.388834,5.0900726,1,0,0,0,0,0,0,0,0,0,0,0,0,0,0,0,0,0,0,0,0
577,0.76666105,-1.0695227,-0.03603966,0.11654019,-0.076844715,-0.121928304,-0.13108255,8.486996,4.607641,1,0,0,0,0,0,0,0,0,0,0,0,0,0,0,0,0,0,0,0,0
578,0.77365416,-1.0719472,-0.032243375,0.036645364,-0.11412897,-0.13151568,-0.08559271,8.441506,4.308366,1,0,0,0,0,0,0,0,0,0,0,0,0,0,0,0,0,0,0,0,0
579,0.7843033,-1.0737383,-0.02457715,0.025992718,-0.03316887,-0.1517557,-0.15143326,8.457068,4.1491513,1,0,0,0,0,0,0,0,0,0,0,0,0,0,0,0,0,0,0,0,0
580,0.7936335,-1.0749708,-0.016128428,0.008948487,0.015833292,-0.1549515,-0.25797522,8.405593,4.1706996,1,0,0,0,0,0,0,0,0,0,0,0,0,0,0,0,0,0,0,0,0
581,0.8054169,-1.0755056,-0.0045943926,-0.040053677,0.017963821,-0.1517557,-0.25438392,8.495376,4.0306387,1,0,0,0,0,0,0,0,0,0,0,0,0,0,0,0,0,0,0,0,0
582,0.8165216,-1.0735471,0.007317221,-0.07627267,0.101054445,-0.13151568,-0.23283611,8.418761,4.4280763,1,0,0,0,0,0,0,0,0,0,0,0,0,0,0,0,0,0,0,0,0
583,0.82386637,-1.0718364,0.01615208,-0.06988108,0.11383762,-0.14536412,-0.08200141,8.2655325,4.5621514,1,0,0,0,0,0,0,0,0,0,0,0,0,0,0,0,0,0,0,0,0
584,0.8371575,-1.0681821,0.029006222,-0.11249166,0.031812258,-0.20395367,-0.10474633,8.236802,4.6842556,1,0,0,0,0,0,0,0,0,0,0,0,0,0,0,0,0,0,0,0,0
585,0.85160524,-1.0641421,0.039731767,-0.121013775,-0.024646757,-0.27426112,-0.16819267,8.276306,4.9164934,1,0,0,0,0,0,0,0,0,0,0,0,0,0,0,0,0,0,0,0,0
586,0.87585545,-1.059352,0.056543265,-0.049641058,-0.074714184,-0.34243804,-0.24480712,8.248773,5.3223104,1,0,0,0,0,0,0,0,0,0,0,0,0,0,0,0,0,0,0,0,0
587,0.9081024,-1.0572097,0.075453326,-0.04644526,-0.3080071,-0.37120017,-1.4466964,8.932318,5.0002904,1,0,0,0,0,0,0,0,0,0,0,0,0,0,0,0,0,0,0,0,0
588,0.9301645,-1.0545939,0.08398439,0.006817959,-0.3463566,0.05916665,-3.8851907,10.642975,5.783194,1,0,0,0,0,0,0,0,0,0,0,0,0,0,0,0,0,0,0,0,0
589,0.9001508,-1.0586836,0.04366152,0.31787518,-0.37724927,1.3481367,-6.7630215,12.43264,6.787562,1,0,0,0,0,0,0,0,0,0,0,0,0,0,0,0,0,0,0,0,0
590,0.79384494,-1.0723209,-0.061443005,0.9389243,-0.2867018,2.8309846,-3.6326025,9.758317,6.622362,1,0,0,0,0,0,0,0,0,0,0,0,0,0,0,0,0,0,0,0,0
591,0.58456063,-1.0924516,-0.25923234,1.3032447,-0.39429352,3.170804,-3.2483332,9.413552,4.6112323,1,0,0,0,0,0,0,0,0,0,0,0,0,0,0,0,0,0,0,0,0
592,0.4011932,-1.0913066,-0.4237795,1.6068667,0.5463648,4.4416385,-5.6604915,10.166529,4.19943,1,0,0,0,0,0,0,0,0,0,0,0,0,0,0,0,0,0,0,0,0
593,0.050282467,-1.0370315,-0.71059746,2.0446904,1.4592965,5.9905324,-0.5835867,4.83105,5.8634,1,0,0,0,0,0,0,0,0,0,0,0,0,0,0,0,0,0,0,0,0
594,-0.2248623,-0.93513584,-0.95243186,2.1703916,0.48884052,5.3300686,4.216788,3.168277,4.3514614,1,0,0,0,0,0,0,0,0,0,0,0,0,0,0,0,0,0,0,0,0
595,-0.39077115,-0.859143,-1.0841517,1.7272416,0.06912634,4.494901,3.1729157,4.1941924,1.2880806,1,0,0,0,0,0,0,0,0,0,0,0,0,0,0,0,0,0,0,0,0
596,-0.59089535,-0.7425511,-1.1789571,2.4356425,2.5479968,4.8464384,5.466561,3.4460044,0.59376204,1,0,0,0,0,0,0,0,0,0,0,0,0,0,0,0,0,0,0,0,0
597,-0.7503802,-0.6418608,-1.1765243,2.0638652,3.6388273,4.7090197,9.681553,1.3187562,2.767697,1,0,0,0,0,0,0,0,0,0,0,0,0,0,0,0,0,0,0,0,0
598,-0.8941986,-0.52073324,-1.1427624,0.7887436,2.5501273,3.3753088,15.844229,-1.4501381,4.2760444,1,0,0,0,0,0,0,0,0,0,0,0,0,0,0,0,0,0,0,0,0
599,-0.9651772,-0.46909124,-1.1085452,0.725893,1.9983202,1.1542324,13.703812,-0.9653122,6.114791,1,0,0,0,0,0,0,0,0,0,0,0,0,0,0,0,0,0,0,0,0
600,-1.0135796,-0.45725086,-1.0805905,0.34452835,0.378053,0.036769997,8.752603,0.580145,4.7668557,1,0,0,0,0,0,0,0,0,0,0,0,0,0,0,0,0,0,0,0,0
601,-1.0192028,-0.45894513,-1.081861,0.09951754,-0.057640128,-0.20824082,7.259818,2.1519384,4.212598,1,0,0,0,0,0,0,0,0,0,0,0,0,0,0,0,0,0,0,0,0
602,-1.0225385,-0.46573138,-1.0787216,0.34452835,0.33437717,-0.24445981,8.247426,3.6650739,4.0258503,1,0,0,0,0,0,0,0,0,0,0,0,0,0,0,0,0,0,0,0,0
603,-1.0203063,-0.4799482,-1.0742545,0.11762703,-0.020355871,-0.45644742,8.476072,4.857386,3.9923313,1,0,0,0,0,0,0,0,0,0,0,0,0,0,0,0,0,0,0,0,0
604,-1.0049813,-0.4946652,-1.0795313,-0.16360278,-0.45285323,-0.6386076,7.6919713,5.920412,3.3758245,1,0,0,0,0,0,0,0,0,0,0,0,0,0,0,0,0,0,0,0,0
605,-0.9763991,-0.5135288,-1.0852778,-0.16360278,-0.37934998,-0.5683002,6.663662,6.3453827,3.7588966,1,0,0,0,0,0,0,0,0,0,0,0,0,0,0,0,0,0,0,0,0
606,-0.961328,-0.5286479,-1.0901926,0.1154965,-0.18547186,-0.33820307,6.965331,5.884499,3.594894,1,0,0,0,0,0,0,0,0,0,0,0,0,0,0,0,0,0,0,0,0
607,-0.95785105,-0.5356813,-1.0971746,0.01642691,-0.30052042,-0.29346198,7.903858,4.8238673,3.2848446,1,0,0,0,0,0,0,0,0,0,0,0,0,0,0,0,0,0,0,0,0
608,-0.94750357,-0.54424274,-1.1067605,-0.19556071,-0.51463854,-0.5416686,8.209119,3.9787142,3.4596214,1,0,0,0,0,0,0,0,0,0,0,0,0,0,0,0,0,0,0,0,0
609,-0.93656236,-0.5538301,-1.1155487,-0.25417396,-0.6286546,-0.7909117,8.685565,3.85661,3.3207579,1,0,0,0,0,0,0,0,0,0,0,0,0,0,0,0,0,0,0,0,0
610,-0.9183373,-0.57513773,-1.1270683,-0.3756141,-0.8385117,-1.2724112,10.280104,3.381361,3.2321723,1,0,0,0,0,0,0,0,0,0,0,0,0,0,0,0,0,0,0,0,0
611,-0.8942439,-0.6029072,-1.1362168,-0.6770839,-1.1666131,-2.1469934,9.9233675,3.2484827,2.7126305,1,0,0,0,0,0,0,0,0,0,0,0,0,0,0,0,0,0,0,0,0
612,-0.83437175,-0.66301996,-1.130169,-0.7601746,-0.8150759,-2.7904131,8.257003,3.3550248,2.4600422,1,0,0,0,0,0,0,0,0,0,0,0,0,0,0,0,0,0,0,0,0
613,-0.752544,-0.7413406,-1.0915724,-0.7228903,-0.44755965,-3.3113272,6.619369,3.9320273,2.920926,1,0,0,0,0,0,0,0,0,0,0,0,0,0,0,0,0,0,0,0,0
614,-0.6657496,-0.8068539,-1.0452174,-0.8730926,-0.602023,-3.5659256,5.145738,5.125537,3.004723,1,0,0,0,0,0,0,0,0,0,0,0,0,0,0,0,0,0,0,0,0
615,-0.5248835,-0.891135,-0.96201,-1.1372782,-0.5881746,-3.7235847,4.162918,5.3206644,2.0278888,1,0,0,0,0,0,0,0,0,0,0,0,0,0,0,0,0,0,0,0,0
616,-0.37583858,-0.9479412,-0.85531497,-1.2501962,0.057375673,-4.032511,2.8089972,5.1770124,3.1507695,1,0,0,0,0,0,0,0,0,0,0,0,0,0,0,0,0,0,0,0,0
617,-0.118543305,-1.0156251,-0.6416567,-0.9146379,0.20651269,-4.0911007,-0.6027403,7.1953244,5.511452,1,0,0,0,0,0,0,0,0,0,0,0,0,0,0,0,0,0,0,0,0
618,0.08672434,-1.0451695,-0.4814066,-1.0573833,-0.63930726,-3.600014,-0.3226187,7.918373,5.6323595,1,0,0,0,0,0,0,0,0,0,0,0,0,0,0,0,0,0,0,0,0
619,0.36189568,-1.0485263,-0.28379184,-1.3993332,-1.4062977,-3.2644558,-4.4478283,9.978583,5.9483943,1,0,0,0,0,0,0,0,0,0,0,0,0,0,0,0,0,0,0,0,0
620,0.55848825,-1.0135996,-0.17308508,-1.7391526,-1.7514433,-1.678277,-4.845266,11.715577,5.273229,1,0,0,0,0,0,0,0,0,0,0,0,0,0,0,0,0,0,0,0,0
621,0.62168807,-0.978712,-0.14948918,-0.99985904,-0.26752996,-0.7110169,-0.28191724,8.925135,7.410054,1,0,0,0,0,0,0,0,0,0,0,0,0,0,0,0,0,0,0,0,0
622,0.6954017,-0.9799626,-0.0772451,0.6587577,0.9521978,-1.3640239,-0.41000703,7.785495,7.052121,1,0,0,0,0,0,0,0,0,0,0,0,0,0,0,0,0,0,0,0,0
623,0.7789533,-1.0079689,0.018646188,1.1306698,0.84567136,-1.1456448,-5.0020857,11.374403,5.445612,1,0,0,0,0,0,0,0,0,0,0,0,0,0,0,0,0,0,0,0,0
624,0.80765784,-1.0352442,0.05827312,0.34770045,0.042461973,0.6024542,-3.2172086,10.362853,3.882198,1,0,0,0,0,0,0,0,0,0,0,0,0,0,0,0,0,0,0,0,0
625,0.73613095,-1.0335433,-0.009209098,-0.21582444,-0.46034282,0.94120824,0.9475053,7.214478,4.3777976,1,0,0,0,0,0,0,0,0,0,0,0,0,0,0,0,0,0,0,0,0
626,0.7061453,-1.031119,-0.041976817,-0.020865867,-0.34633878,0.13691524,1.0576386,7.5532575,3.9695864,1,0,0,0,0,0,0,0,0,0,0,0,0,0,0,0,0,0,0,0,0
627,0.70703363,-1.0385802,-0.03954694,0.24438497,0.20653346,0.02825827,-0.5129577,8.755147,3.9348705,0,0,0,0,0,0,0,0,0,0,0,0,0,0,0,0,0,0,0,0,0
628,0.69177246,-1.0463462,-0.04107957,0.26249447,0.47924116,0.5086925,-0.2148796,8.532486,4.554969,0,0,0,0,0,0,0,0,0,0,0,0,0,0,0,0,0,0,0,0,0
629,0.64435506,-1.0482543,-0.07000884,0.027071033,0.061657503,0.5044315,1.3700819,7.5795937,4.8997335,0,0,0,0,0,0,0,0,0,0,0,0,0,0,0,0,0,0,0,0,0
630,0.61955494,-1.0452143,-0.089557484,-0.13484916,-0.22809441,0.017605625,1.6226702,7.512556,4.533421,0,0,0,0,0,0,0,0,0,0,0,0,0,0,0,0,0,0,0,0,0
631,0.63021123,-1.0413141,-0.085160695,-0.11780493,-0.098132156,-0.21142623,0.18974048,8.344542,4.6686935,0,0,0,0,0,0,0,0,0,0,0,0,0,0,0,0,0,0,0,0,0
632,0.6357834,-1.040468,-0.07821904,0.018548917,0.12344284,0.02080142,0.1921347,8.4965725,4.9081135,0,0,0,0,0,0,0,0,0,0,0,0,0,0,0,0,0,0,0,0,0
633,0.6303417,-1.0413415,-0.078975864,0.07394267,0.06059224,-0.045244977,0.85772276,7.894431,4.950012,0,0,0,0,0,0,0,0,0,0,0,0,0,0,0,0,0,0,0,0,0
634,0.6436581,-1.0442206,-0.067862034,0.027071033,-0.06191317,-0.29025578,0.15502456,8.343344,4.510676,0,0,0,0,0,0,0,0,0,0,0,0,0,0,0,0,0,0,0,0,0
635,0.66076505,-1.0453583,-0.053938307,-0.017670074,0.0169164,-0.18266408,-0.54767364,8.773103,4.557363,0,0,0,0,0,0,0,0,0,0,0,0,0,0,0,0,0,0,0,0,0
636,0.6657283,-1.0463881,-0.047122274,0.05370264,0.11065967,0.050628822,-0.18495208,8.643816,4.781221,0,0,0,0,0,0,0,0,0,0,0,0,0,0,0,0,0,0,0,0,0
637,0.6615714,-1.0480087,-0.048757758,0.05370264,0.004133226,-0.0015691345,0.3549404,8.139837,4.607641,0,0,0,0,0,0,0,0,0,0,0,0,0,0,0,0,0,0,0,0,0
638,0.666232,-1.0491903,-0.044747513,0.022809975,-0.012911005,-0.16988091,0.42676646,8.034492,4.5896845,0,0,0,0,0,0,0,0,0,0,0,0,0,0,0,0,0,0,0,0,0
639,0.68136483,-1.05121,-0.030717487,0.055833172,0.07124489,-0.20183885,-0.048482586,8.421156,4.6244006,0,0,0,0,0,0,0,0,0,0,0,0,0,0,0,0,0,0,0,0,0
640,0.6877354,-1.0532163,-0.022739772,0.067551084,0.09894176,-0.0803987,0.12270284,8.3206,4.6495395,0,0,0,0,0,0,0,0,0,0,0,0,0,0,0,0,0,0,0,0,0
641,0.69275194,-1.0543404,-0.016537253,0.011092066,-0.015041534,-0.17520724,0.4794389,8.012944,4.631583,0,0,0,0,0,0,0,0,0,0,0,0,0,0,0,0,0,0,0,0,0
642,0.70703477,-1.0543272,-0.005397673,-0.032579515,-0.055515457,-0.35843804,0.091578215,8.202086,4.569334,0,0,0,0,0,0,0,0,0,0,0,0,0,0,0,0,0,0,0,0,0
643,0.7336311,-1.0529509,0.014373787,-0.053884804,-0.0991913,-0.36056858,-0.27353755,8.388834,4.6399627,0,0,0,0,0,0,0,0,0,0,0,0,0,0,0,0,0,0,0,0,0
644,0.7506658,-1.0522376,0.027295146,-0.0048826393,-0.027818581,-0.26576003,-0.32142156,8.363695,4.578911,0,0,0,0,0,0,0,0,0,0,0,0,0,0,0,0,0,0,0,0,0
645,0.7718381,-1.0522797,0.045482732,0.018553179,0.05633731,-0.2700211,-0.64463884,8.538471,4.8482585,0,0,0,0,0,0,0,0,0,0,0,0,0,0,0,0,0,0,0,0,0
646,0.79045564,-1.0536054,0.06166007,0.04092373,-0.025688052,-0.2071705,-0.7236475,8.5121355,4.5896845,0,0,0,0,0,0,0,0,0,0,0,0,0,0,0,0,0,0,0,0,0
647,0.80087835,-1.0534275,0.06946127,-0.032579515,-0.0512544,-0.20503996,-0.44232875,8.307431,4.5441947,0,0,0,0,0,0,0,0,0,0,0,0,0,0,0,0,0,0,0,0,0
648,0.8163077,-1.0521967,0.08261132,-0.0016868463,0.032901492,-0.24978107,-0.40402153,8.222437,4.5681367,0,0,0,0,0,0,0,0,0,0,0,0,0,0,0,0,0,0,0,0,0
649,0.82986224,-1.0521352,0.09630997,0.01642265,0.07551207,-0.23593263,-0.587178,8.4008045,4.6495395,0,0,0,0,0,0,0,0,0,0,0,0,0,0,0,0,0,0,0,0,0
650,0.84357905,-1.0519989,0.11004273,-0.0016868463,0.020118318,-0.21782313,-0.3788824,8.103924,4.5166616,0,0,0,0,0,0,0,0,0,0,0,0,0,0,0,0,0,0,0,0,0
651,0.86376613,-1.0494969,0.12640259,-0.05601533,-0.026753318,-0.2753474,-1.0109516,8.48101,4.8614264,0,0,0,0,0,0,0,0,0,0,0,0,0,0,0,0,0,0,0,0,0
652,0.8775234,-1.0478579,0.13525721,-0.003817375,-0.13434502,-0.14538516,-1.2455834,8.6952915,4.9200845,0,0,0,0,0,0,0,0,0,0,0,0,0,0,0,0,0,0,0,0,0
653,0.8840335,-1.0479647,0.13644943,-0.003817375,-0.12795344,-0.0633598,-0.88765025,8.368484,4.547786,0,0,0,0,0,0,0,0,0,0,0,0,0,0,0,0,0,0,0,0,0
654,0.88843596,-1.047527,0.13902164,0.019618442,-0.01290488,-0.11342723,-0.7236475,8.208072,4.7177744,1,0,0,0,0,0,0,0,0,0,0,0,0,0,0,0,0,0,0,0,0
655,0.89948213,-1.049149,0.1492736,0.09205642,0.012661466,-0.1379283,-0.9475053,8.491784,4.6471453,1,0,0,0,0,0,0,0,0,0,0,0,0,0,0,0,0,0,0,0,0
656,0.9039736,-1.0513085,0.15411551,0.019618442,-0.02036173,-0.0782735,-0.7260417,8.278701,4.3777976,1,0,0,0,0,0,0,0,0,0,0,0,0,0,0,0,0,0,0,0,0
657,0.9118007,-1.0494425,0.1598329,-0.036840573,-0.017165937,-0.17308204,-0.82779527,8.229619,4.787206,1,0,0,0,0,0,0,0,0,0,0,0,0,0,0,0,0,0,0,0,0
658,0.93345636,-1.0487262,0.17916338,0.06222902,0.091491036,-0.09531773,-3.2136173,9.990555,5.377377,1,0,0,0,0,0,0,0,0,0,0,0,0,0,0,0,0,0,0,0,0
659,0.92917514,-1.052121,0.17427115,0.25823766,0.026509903,0.8112223,-5.181651,11.224766,6.327875,1,0,0,0,0,0,0,0,0,0,0,0,0,0,0,0,0,0,0,0,0
660,0.84173715,-1.0702273,0.09871223,0.55864227,0.14795005,2.2834177,-7.0527196,11.846061,6.0728927,1,0,0,0,0,0,0,0,0,0,0,0,0,0,0,0,0,0,0,0,0
661,0.68928045,-1.0863779,-0.03560116,0.908049,0.24915017,3.8664007,-3.9270895,9.316587,6.5696893,1,0,0,0,0,0,0,0,0,0,0,0,0,0,0,0,0,0,0,0,0
662,0.4010007,-1.0984086,-0.29067463,1.326698,0.22358382,4.1146073,-1.7411832,7.9806223,5.4899044,1,0,0,0,0,0,0,0,0,0,0,0,0,0,0,0,0,0,0,0,0
663,0.17687723,-1.0893663,-0.48775333,1.8124585,0.421723,4.923143,-3.6122518,7.728034,4.4208937,1,0,0,0,0,0,0,0,0,0,0,0,0,0,0,0,0,0,0,0,0
664,-0.18153583,-1.0201584,-0.79482555,1.6761047,0.60920954,5.5985208,2.4702177,3.5298016,3.2561142,1,0,0,0,0,0,0,0,0,0,0,0,0,0,0,0,0,0,0,0,0
665,-0.4804158,-0.9135177,-0.9912663,1.7251068,0.6784517,4.721808,5.6509147,3.605219,3.787627,1,0,0,0,0,0,0,0,0,0,0,0,0,0,0,0,0,0,0,0,0
666,-0.64795256,-0.8361679,-1.0883753,1.8934186,1.0640775,4.1593485,6.621763,4.0277953,2.328361,1,0,0,0,0,0,0,0,0,0,0,0,0,0,0,0,0,0,0,0,0
667,-0.8202527,-0.74308705,-1.1509317,2.1192546,2.1517124,3.74283,6.3727665,4.2887635,3.0825348,1,0,0,0,0,0,0,0,0,0,0,0,0,0,0,0,0,0,0,0,0
668,-0.9487414,-0.6725803,-1.1750058,1.7112584,1.5072274,3.436034,9.606135,2.895338,2.493561,1,0,0,0,0,0,0,0,0,0,0,0,0,0,0,0,0,0,0,0,0
669,-1.0634004,-0.5876399,-1.1954994,1.1392113,1.1759303,2.5273633,12.679093,2.123208,3.107674,1,0,0,0,0,0,0,0,0,0,0,0,0,0,0,0,0,0,0,0,0
670,-1.1500359,-0.5397668,-1.1913958,1.202062,1.324002,1.2927219,11.320384,1.6228198,2.9388826,1,0,0,0,0,0,0,0,0,0,0,0,0,0,0,0,0,0,0,0,0
671,-1.1911049,-0.5249773,-1.1846012,0.72908455,0.7700645,0.6759337,8.582615,2.7445033,2.6084828,1,0,0,0,0,0,0,0,0,0,0,0,0,0,0,0,0,0,0,0,0
672,-1.2189137,-0.5065379,-1.1808962,0.16982073,0.32691446,0.45968503,8.966884,2.4883237,2.956839,1,0,0,0,0,0,0,0,0,0,0,0,0,0,0,0,0,0,0,0,0
673,-1.2298723,-0.49964723,-1.1773592,0.16342914,0.27897757,0.019730827,9.045893,3.0761003,3.2740707,1,0,0,0,0,0,0,0,0,0,0,0,0,0,0,0,0,0,0,0,0
674,-1.2301728,-0.50715876,-1.1735458,0.19645233,0.07977313,-0.32648012,8.199542,4.3941083,3.2190042,1,0,0,0,0,0,0,0,0,0,0,0,0,0,0,0,0,0,0,0,0
675,-1.2239368,-0.5182348,-1.1774398,0.015357384,-0.2099788,-0.3712212,7.6823945,5.354183,2.4744074,1,0,0,0,0,0,0,0,0,0,0,0,0,0,0,0,0,0,0,0,0
676,-1.2100079,-0.53093636,-1.1805067,-0.024051007,-0.056571666,-0.303052,7.2634096,5.8868933,2.5965118,1,0,0,0,0,0,0,0,0,0,0,0,0,0,0,0,0,0,0,0,0
677,-1.1961693,-0.54034024,-1.1803503,-0.089032136,-0.06189799,-0.20930874,7.1688385,5.9383683,2.5773582,1,0,0,0,0,0,0,0,0,0,0,0,0,0,0,0,0,0,0,0,0
678,-1.187113,-0.5436738,-1.1795104,-0.051747885,0.032910544,-0.08573807,7.5471225,5.43798,2.7150247,1,0,0,0,0,0,0,0,0,0,0,0,0,0,0,0,0,0,0,0,0
679,-1.1836529,-0.5429769,-1.1789333,-0.13377324,-0.077876955,-0.12941392,8.883087,4.3222823,2.9472623,1,0,0,0,0,0,0,0,0,0,0,0,0,0,0,0,0,0,0,0,0
680,-1.1787428,-0.54421985,-1.180169,-0.28291026,-0.32288778,-0.5352797,9.366715,3.5321958,3.289633,1,0,0,0,0,0,0,0,0,0,0,0,0,0,0,0,0,0,0,0,0
681,-1.1580634,-0.5617711,-1.1834191,-0.33617347,-0.53167963,-0.9784297,8.839992,3.8518217,3.2453403,1,0,0,0,0,0,0,0,0,0,0,0,0,0,0,0,0,0,0,0,0
682,-1.1389673,-0.5796923,-1.1888468,-0.59716326,-1.0142444,-1.4002744,9.639654,3.4100914,3.5901055,1,0,0,0,0,0,0,0,0,0,0,0,0,0,0,0,0,0,0,0,0
683,-1.0916374,-0.62067544,-1.2038661,-0.8634794,-1.6161188,-2.1353068,9.642049,3.5561378,3.2824504,1,0,0,0,0,0,0,0,0,0,0,0,0,0,0,0,0,0,0,0,0
684,-1.0240088,-0.68141556,-1.2193416,-1.1319261,-1.9655255,-2.8319898,9.665991,3.2999582,2.705448,1,0,0,0,0,0,0,0,0,0,0,0,0,0,0,0,0,0,0,0,0
685,-0.9592779,-0.7432734,-1.2184356,-1.2714757,-1.6512725,-3.7182899,8.128913,3.5070565,1.887828,1,0,0,0,0,0,0,0,0,0,0,0,0,0,0,0,0,0,0,0,0
686,-0.84410584,-0.8483914,-1.1697708,-1.3034335,-1.0312886,-4.3329473,5.945401,3.33228,1.8842367,1,0,0,0,0,0,0,0,0,0,0,0,0,0,0,0,0,0,0,0,0
687,-0.720366,-0.9337071,-1.0896771,-1.5207475,-0.8310189,-4.9199076,4.1437645,3.6854246,2.171541,1,0,0,0,0,0,0,0,0,0,0,0,0,0,0,0,0,0,0,0,0
688,-0.43567955,-1.0486939,-0.8882952,-1.8243479,-0.85658526,-5.2299,0.7152678,5.0034328,2.7150247,1,0,0,0,0,0,0,0,0,0,0,0,0,0,0,0,0,0,0,0,0
689,-0.03648853,-1.1110578,-0.577568,-2.3346095,-1.0547245,-4.9188423,-0.75836337,5.5828295,2.7952304,1,0,0,0,0,0,0,0,0,0,0,0,0,0,0,0,0,0,0,0,0
690,0.29918885,-1.1030437,-0.3034949,-2.341001,-0.5444628,-4.6056547,-5.1984105,8.114697,5.3007627,1,0,0,0,0,0,0,0,0,0,0,0,0,0,0,0,0,0,0,0,0
691,0.6090866,-1.0528077,-0.057152063,-2.0725546,-0.8608463,-2.914015,-6.615778,12.127379,5.723339,0,0,0,0,0,0,0,0,0,0,0,0,0,0,0,0,0,0,0,0,0
692,0.7207772,-0.9959755,0.008483245,-2.1471252,-0.8352829,-1.4993416,-3.5655649,9.5787525,7.928399,0,0,0,0,0,0,0,0,0,0,0,0,0,0,0,0,0,0,0,0,0
693,0.81470525,-0.9336702,0.05722329,-1.2299324,-0.64247,-1.1318253,-6.5188127,10.89676,10.296265,0,0,0,0,0,0,0,0,0,0,0,0,0,0,0,0,0,0,0,0,0
694,0.8415359,-0.9178631,0.061503705,-0.19129965,-0.57855415,0.2562142,-4.312556,10.428694,7.979874,0,0,0,0,0,0,0,0,0,0,0,0,0,0,0,0,0,0,0,0,0
695,0.81680185,-0.91893804,0.027604273,0.29339567,-0.013964019,0.6759284,-0.7882909,7.492205,6.9108634,0,0,0,0,0,0,0,0,0,0,0,0,0,0,0,0,0,0,0,0,0
696,0.7901229,-0.9380114,0.015708076,0.669434,0.39509752,0.3105427,0.25677812,7.3533416,5.5401826,0,0,0,0,0,0,0,0,0,0,0,0,0,0,0,0,0,0,0,0,0
697,0.77686894,-0.95459414,0.017084818,0.5320149,0.30668056,0.21999522,0.16819267,7.64304,4.8123455,0,0,0,0,0,0,0,0,0,0,0,0,0,0,0,0,0,0,0,0,0
698,0.75407225,-0.96872216,0.0054408116,0.24332823,-0.03100825,0.444766,-0.0053869537,7.8968253,4.477157,0,0,0,0,0,0,0,0,0,0,0,0,0,0,0,0,0,0,0,0,0
699,0.7145831,-0.9698294,-0.023995856,-0.057076335,-0.18334106,0.44902706,1.4742297,6.8194346,4.4843397,0,0,0,0,0,0,0,0,0,0,0,0,0,0,0,0,0,0,0,0,0
700,0.69142735,-0.9667989,-0.039886888,-0.073055305,0.0041454765,-0.061234593,1.1869255,7.1857476,5.0984526,0,0,0,0,0,0,0,0,0,0,0,0,0,0,0,0,0,0,0,0,0
701,0.6997411,-0.9654915,-0.02984234,-0.011269965,0.06593081,-0.25937378,0.2112883,7.8178167,5.3737855,0,0,0,0,0,0,0,0,0,0,0,0,0,0,0,0,0,0,0,0,0
702,0.7159706,-0.9650033,-0.014392658,-0.024053138,0.052082375,-0.15178207,-0.66498953,8.31222,5.8095303,0,0,0,0,0,0,0,0,0,0,0,0,0,0,0,0,0,0,0,0,0
703,0.7200874,-0.96373683,-0.011751319,-0.021922609,-0.03633457,-0.0026450516,-0.22565351,7.9135847,5.866991,0,0,0,0,0,0,0,0,0,0,0,0,0,0,0,0,0,0,0,0,0
704,0.72523135,-0.9639498,-0.009235377,0.09738701,-0.04059563,-0.1358031,-0.1921347,7.8992195,5.8203044,0,0,0,0,0,0,0,0,0,0,0,0,0,0,0,0,0,0,0,0,0
705,0.7369839,-0.97028476,0.0011775823,0.22415347,0.052082375,-0.19545792,-0.44113165,8.070405,5.3881507,0,0,0,0,0,0,0,0,0,0,0,0,0,0,0,0,0,0,0,0,0
706,0.74529153,-0.97668654,0.010543347,0.25504613,0.08936663,-0.049516685,-0.6314707,8.364892,5.3462524,0,0,0,0,0,0,0,0,0,0,0,0,0,0,0,0,0,0,0,0,0
707,0.74328977,-0.9849779,0.011173851,0.20604397,-0.0033113745,0.06233608,-0.12868834,7.9135847,5.115212,0,0,0,0,0,0,0,0,0,0,0,0,0,0,0,0,0,0,0,0,0
708,0.7393689,-0.9904436,0.009180599,0.20710924,0.0041454765,-0.061234593,0.2088941,7.655011,4.80636,0,0,0,0,0,0,0,0,0,0,0,0,0,0,0,0,0,0,0,0,0
709,0.7465301,-0.998158,0.019297235,0.22522514,0.13518178,-0.21250987,0.019752163,7.8752775,4.7285485,0,0,0,0,0,0,0,0,0,0,0,0,0,0,0,0,0,0,0,0,0
710,0.7603875,-1.005188,0.0375567,0.17302717,0.15648708,-0.26683834,-0.074818805,7.822605,4.6722846,0,0,0,0,0,0,0,0,0,0,0,0,0,0,0,0,0,0,0,0,0
711,0.7753203,-1.0078696,0.05291858,0.046260707,0.052091163,-0.2987963,-0.54408234,8.142231,4.793192,0,0,0,0,0,0,0,0,0,0,0,0,0,0,0,0,0,0,0,0,0
712,0.7925275,-1.0068902,0.06659827,-0.076244704,-0.06934898,-0.17416035,-0.83138657,8.336162,4.9308586,0,0,0,0,0,0,0,0,0,0,0,0,0,0,0,0,0,0,0,0,0
713,0.8004716,-1.0046495,0.07108991,-0.07198364,-0.058696337,-0.14539821,-0.65660983,8.135049,5.0421886,0,0,0,0,0,0,0,0,0,0,0,0,0,0,0,0,0,0,0,0,0
714,0.8129629,-1.003322,0.08060437,0.017498566,0.013741645,-0.15605085,-0.86729956,8.290671,5.2385135,0,0,0,0,0,0,0,0,0,0,0,0,0,0,0,0,0,0,0,0,0
715,0.8212831,-1.0043854,0.087658435,0.03241227,-0.0054331147,-0.08680867,-0.6865373,8.162581,4.999093,1,0,0,0,0,0,0,0,0,0,0,0,0,0,0,0,0,0,0,0,0
716,0.8247537,-1.0042378,0.09033641,0.012172244,0.0148069095,-0.09959184,-0.350152,7.8692923,5.1583076,1,0,0,0,0,0,0,0,0,0,0,0,0,0,0,0,0,0,0,0,0
717,0.8343133,-1.0040021,0.09868835,0.024955418,0.0073500583,-0.20505302,-0.29747957,7.798663,5.187038,1,0,0,0,0,0,0,0,0,0,0,0,0,0,0,0,0,0,0,0,0
718,0.8450214,-1.0043775,0.1083041,0.08141443,0.036112197,-0.3009268,-0.30466217,7.797466,5.104438,1,0,0,0,0,0,0,0,0,0,0,0,0,0,0,0,0,0,0,0,0
719,0.8667927,-1.0066632,0.12844214,0.13148186,0.059548017,-0.34992898,-0.6434417,7.986608,5.073313,1,0,0,0,0,0,0,0,0,0,0,0,0,0,0,0,0,0,0,0,0
720,0.8854691,-1.0087438,0.1451987,0.115502894,0.015872173,-0.34247214,-1.002572,8.137443,5.0062757,1,0,0,0,0,0,0,0,0,0,0,0,0,0,0,0,0,0,0,0,0
721,0.9107785,-1.0099481,0.16527542,0.06543546,-0.07361004,-0.25831625,-1.9219455,8.72881,5.1666875,1,0,0,0,0,0,0,0,0,0,0,0,0,0,0,0,0,0,0,0,0
722,0.9230617,-1.0116704,0.17062351,0.10804604,-0.14604802,0.05913256,-2.3720553,9.148993,5.5521536,1,0,0,0,0,0,0,0,0,0,0,0,0,0,0,0,0,0,0,0,0
723,0.9180555,-1.0175337,0.16225934,0.26996624,-0.10663324,0.2892297,-1.6262615,8.325388,5.0996494,1,0,0,0,0,0,0,0,0,0,0,0,0,0,0,0,0,0,0,0,0
724,0.90822005,-1.0276378,0.15198892,0.24226937,-0.036325783,0.25194544,-1.8106151,8.72043,4.939238,1,0,0,0,0,0,0,0,0,0,0,0,0,0,0,0,0,0,0,0,0
725,0.897711,-1.0341595,0.13986443,0.3072505,-0.16948384,0.63970166,-2.5540147,9.669732,5.920861,1,0,0,0,0,0,0,0,0,0,0,0,0,0,0,0,0,0,0,0,0
726,0.8699934,-1.044987,0.108128294,0.4542442,-0.41238198,1.3491834,-4.681263,10.573543,5.8909335,1,0,0,0,0,0,0,0,0,0,0,0,0,0,0,0,0,0,0,0,0
727,0.7618967,-1.063782,-0.002724696,0.7812804,-0.5103863,2.8085957,-5.689222,11.516858,6.3721676,1,0,0,0,0,0,0,0,0,0,0,0,0,0,0,0,0,0,0,0,0
728,0.5293293,-1.0766592,-0.23175076,1.0188344,-0.5966727,3.856816,-2.2691047,8.176947,6.137536,1,0,0,0,0,0,0,0,0,0,0,0,0,0,0,0,0,0,0,0,0
729,0.26782212,-1.065723,-0.48352674,1.4183085,-0.41983882,4.130589,-4.1054573,8.961048,4.355053,1,0,0,0,0,0,0,0,0,0,0,0,0,0,0,0,0,0,0,0,0
730,0.041035235,-1.0275594,-0.67525375,2.2737157,1.0363777,5.9426036,-5.5347958,7.360524,5.695806,1,0,0,0,0,0,0,0,0,0,0,0,0,0,0,0,0,0,0,0,0
731,-0.21214613,-0.9431676,-0.8843077,2.7626722,1.4070897,6.774575,2.7994204,2.2333412,5.707777,1,0,0,0,0,0,0,0,0,0,0,0,0,0,0,0,0,0,0,0,0
732,-0.5111347,-0.8148552,-1.0850155,2.282238,0.46539593,5.3460555,5.3324857,3.642329,2.15957,1,0,0,0,0,0,0,0,0,0,0,0,0,0,0,0,0,0,0,0,0
733,-0.7343591,-0.68518484,-1.184947,2.6838427,2.3104339,5.1106324,7.5291657,2.280028,1.5047557,1,0,0,0,0,0,0,0,0,0,0,0,0,0,0,0,0,0,0,0,0
734,-0.93608844,-0.5577503,-1.1874356,2.496356,3.0710328,4.3830566,13.189058,-0.79173255,4.6591167,1,0,0,0,0,0,0,0,0,0,0,0,0,0,0,0,0,0,0,0,0
735,-1.0489073,-0.4874882,-1.1812114,1.5482708,1.516812,2.4687765,17.187376,-3.1991024,4.537012,1,0,0,0,0,0,0,0,0,0,0,0,0,0,0,0,0,0,0,0,0
736,-1.1191608,-0.45785517,-1.1809592,1.2041904,0.7008194,0.5917805,13.380595,-1.6847697,3.6834793,1,0,0,0,0,0,0,0,0,0,0,0,0,0,0,0,0,0,0,0,0
737,-1.1507827,-0.46873465,-1.1776086,0.70777714,0.2352988,-0.32860798,6.739079,2.1555297,3.5853171,1,0,0,0,0,0,0,0,0,0,0,0,0,0,0,0,0,0,0,0,0
738,-1.1644517,-0.4759376,-1.1841786,0.41695994,-0.21743858,-0.05057396,7.355586,2.8498483,2.942474,1,0,0,0,0,0,0,0,0,0,0,0,0,0,0,0,0,0,0,0,0
739,-1.1778525,-0.48064446,-1.2007744,0.37115356,-0.26644075,-0.32647744,9.711481,3.7668273,2.7353754,1,0,0,0,0,0,0,0,0,0,0,0,0,0,0,0,0,0,0,0,0
740,-1.1791186,-0.5018761,-1.2147093,0.2955198,-0.303725,-0.6215557,8.276156,5.317073,2.1296425,1,0,0,0,0,0,0,0,0,0,0,0,0,0,0,0,0,0,0,0,0
741,-1.1730459,-0.52053505,-1.2259403,0.11655538,-0.33994398,-0.5118334,7.365163,5.81387,1.448492,1,0,0,0,0,0,0,0,0,0,0,0,0,0,0,0,0,0,0,0,0
742,-1.1608398,-0.5341554,-1.2353591,-0.18277328,-0.3303417,-0.3829495,7.9541364,5.0872297,1.8974048,1,0,0,0,0,0,0,0,0,0,0,0,0,0,0,0,0,0,0,0,0
743,-1.1462007,-0.544642,-1.2402077,-0.1880996,-0.28133953,-0.4820191,8.325238,4.659865,2.2182279,1,0,0,0,0,0,0,0,0,0,0,0,0,0,0,0,0,0,0,0,0
744,-1.1356524,-0.55496895,-1.2447519,-0.24881966,-0.39638808,-0.63967824,8.569447,4.493468,1.9117701,1,0,0,0,0,0,0,0,0,0,0,0,0,0,0,0,0,0,0,0,0
745,-1.1216453,-0.566594,-1.2506543,-0.53111476,-0.5646999,-0.85379636,9.183559,4.175039,1.7106571,1,0,0,0,0,0,0,0,0,0,0,0,0,0,0,0,0,0,0,0,0
746,-1.0877155,-0.58719057,-1.2515694,-0.95615524,-0.86830026,-1.3874938,10.015544,3.3227031,2.6539726,1,0,0,0,0,0,0,0,0,0,0,0,0,0,0,0,0,0,0,0,0
747,-1.0527534,-0.6125452,-1.2524292,-1.0403111,-1.0856142,-1.9286482,9.549872,3.3227031,2.4588451,1,0,0,0,0,0,0,0,0,0,0,0,0,0,0,0,0,0,0,0,0
748,-0.9935413,-0.66723096,-1.2472312,-1.0147448,-0.8640392,-2.5220006,8.673594,3.321506,1.412579,1,0,0,0,0,0,0,0,0,0,0,0,0,0,0,0,0,0,0,0,0
749,-0.92305684,-0.7384348,-1.2102618,-1.2139492,-0.19079205,-3.2676857,8.230667,3.1156046,1.6184803,1,0,0,0,0,0,0,0,0,0,0,0,0,0,0,0,0,0,0,0,0
750,-0.8446672,-0.8033779,-1.1491898,-1.4355242,-0.02141501,-3.9878044,7.0527196,4.0756793,2.859874,1,0,0,0,0,0,0,0,0,0,0,0,0,0,0,0,0,0,0,0,0
751,-0.69731826,-0.8988761,-1.0293185,-1.4557643,-0.37295228,-4.4703693,5.6425347,3.9224505,3.8654387,1,0,0,0,0,0,0,0,0,0,0,0,0,0,0,0,0,0,0,0,0
752,-0.5067112,-0.9735042,-0.9032475,-1.567617,-0.7766875,-5.3300376,3.0412347,3.7931638,3.442862,1,0,0,0,0,0,0,0,0,0,0,0,0,0,0,0,0,0,0,0,0
753,-0.14591765,-1.0604756,-0.6318382,-1.6762741,-0.52954614,-5.609137,-0.9295488,4.3498154,3.7948096,1,0,0,0,0,0,0,0,0,0,0,0,0,0,0,0,0,0,0,0,0
754,0.18779665,-1.084313,-0.36084342,-1.8882617,-0.5764178,-5.218185,-3.5392287,6.979846,4.8937483,1,0,0,0,0,0,0,0,0,0,0,0,0,0,0,0,0,0,0,0,0
755,0.6210522,-1.0303743,-0.039420597,-2.074683,-2.1455524,-3.5425239,-10.411784,12.960562,10.067618,1,0,0,0,0,0,0,0,0,0,0,0,0,0,0,0,0,0,0,0,0
756,0.7298207,-0.97780395,-0.032129783,-2.107706,-3.4792633,-1.1201125,-7.5531077,12.96535,6.909666,1,0,0,0,0,0,0,0,0,0,0,0,0,0,0,0,0,0,0,0,0
757,0.7515441,-0.9348068,-0.078894794,-1.0786606,-1.4254335,0.12198582,-1.738789,9.237578,7.3909006,1,0,0,0,0,0,0,0,0,0,0,0,0,0,0,0,0,0,0,0,0
758,0.7648306,-0.93134236,-0.0759185,0.75785524,0.7572933,-0.4255601,-0.46627077,7.9494977,7.089231,1,0,0,0,0,0,0,0,0,0,0,0,0,0,0,0,0,0,0,0,0
759,0.79916877,-0.95619506,-0.028146084,1.039085,0.7668807,-0.7334215,-1.9015948,8.771906,6.135142,1,0,0,0,0,0,0,0,0,0,0,0,0,0,0,0,0,0,0,0,0
760,0.8378898,-0.98583823,0.0125336945,0.23161459,-0.33673328,-0.016498549,-2.2547395,9.2699,4.0785227,1,0,0,0,0,0,0,0,0,0,0,0,0,0,0,0,0,0,0,0,0
761,0.8184136,-0.98116785,-0.01558712,-0.32125765,-0.6009189,0.39788932,0.16819267,7.6095214,4.642357,0,0,0,0,0,0,0,0,0,0,0,0,0,0,0,0,0,0,0,0,0
762,0.79392326,-0.97623384,-0.04041203,0.03773646,-0.23872896,0.03143835,1.4802152,7.0085764,4.8374844,0,0,0,0,0,0,0,0,0,0,0,0,0,0,0,0,0,0,0,0,0
763,0.80362904,-0.9870191,-0.027515199,0.33174944,0.14476624,-0.40851587,0.3321955,7.6478286,4.173094,0,0,0,0,0,0,0,0,0,0,0,0,0,0,0,0,0,0,0,0,0
764,0.8204932,-0.99364847,-0.006600942,0.048389103,0.11813463,-0.33714315,-0.31184477,8.138639,4.4699745,0,0,0,0,0,0,0,0,0,0,0,0,0,0,0,0,0,0,0,0,0
765,0.83394265,-0.988965,0.004869031,-0.24455862,-0.150312,-0.1560482,-0.10235212,7.866898,5.1690817,0,0,0,0,0,0,0,0,0,0,0,0,0,0,0,0,0,0,0,0,0
766,0.84308255,-0.9819991,0.007531317,-0.19875224,-0.15989938,-0.29133677,0.073621705,7.713669,5.5988407,0,0,0,0,0,0,0,0,0,0,0,0,0,0,0,0,0,0,0,0,0
767,0.86813456,-0.979836,0.025874265,0.02814908,0.028652417,-0.49586755,-0.41599256,7.9219646,5.1702785,0,0,0,0,0,0,0,0,0,0,0,0,0,0,0,0,0,0,0,0,0
768,0.9011199,-0.98072994,0.055184644,0.08034704,0.10961252,-0.35205683,-1.632247,8.853309,5.853823,0,0,0,0,0,0,0,0,0,0,0,0,0,0,0,0,0,0,0,0,0
769,0.90930456,-0.9839409,0.06169459,0.06756386,-0.08106982,0.0048067393,-0.8026561,8.048857,5.2516813,0,0,0,0,0,0,0,0,0,0,0,0,0,0,0,0,0,0,0,0,0
770,0.9097764,-0.983809,0.058228366,-0.018722555,-0.19292258,-0.03141225,-0.362123,7.760356,5.2768207,0,0,0,0,0,0,0,0,0,0,0,0,0,0,0,0,0,0,0,0,0
771,0.91331124,-0.9834198,0.056801006,-0.01020044,-0.20570576,-0.16563557,-0.30705637,7.8453503,5.0302176,0,0,0,0,0,0,0,0,0,0,0,0,0,0,0,0,0,0,0,0,0
772,0.92587566,-0.98602396,0.0658075,0.103782855,-0.026741333,-0.20718089,-0.7763199,8.21286,4.739322,0,0,0,0,0,0,0,0,0,0,0,0,0,0,0,0,0,0,0,0,0
773,0.93290025,-0.98905927,0.07390941,0.047323838,0.04569665,-0.07828388,-0.8074445,8.200889,4.8518496,0,0,0,0,0,0,0,0,0,0,0,0,0,0,0,0,0,0,0,0,0
774,0.9363113,-0.98806494,0.07646051,-0.08370368,-0.12154987,-0.10704602,-0.40761283,7.8214083,5.09127,0,0,0,0,0,0,0,0,0,0,0,0,0,0,0,0,0,0,0,0,0
775,0.9489553,-0.9848567,0.08323002,-0.07092051,-0.104505636,-0.24446514,-0.7918822,7.9566803,5.0278234,0,0,0,0,0,0,0,0,0,0,0,0,0,0,0,0,0,0,0,0,0
776,0.96407896,-0.98491603,0.097833455,0.037721545,0.10533068,-0.14218138,-1.3269863,8.546851,5.007473,0,0,0,0,0,0,0,0,0,0,0,0,0,0,0,0,0,0,0,0,0
777,0.96484256,-0.9866658,0.103240974,0.017481523,0.13089703,0.05595781,-0.9367314,8.210465,4.911705,0,0,0,0,0,0,0,0,0,0,0,0,0,0,0,0,0,0,0,0,0
778,0.96159196,-0.9848925,0.102501646,-0.13591656,9.347695E-4,0.018673552,-0.5847838,7.676559,5.177461,0,0,0,0,0,0,0,0,0,0,0,0,0,0,0,0,0,0,0,0,0
779,0.9635173,-0.9798655,0.10296414,-0.12952498,-0.071503215,-0.12087609,-0.55126494,7.7795095,5.1367598,0,0,0,0,0,0,0,0,0,0,0,0,0,0,0,0,0,0,0,0,0
780,0.9731774,-0.976546,0.111431964,-0.078392275,0.03928429,-0.13898559,-1.0827777,8.257153,5.109226,0,0,0,0,0,0,0,0,0,0,0,0,0,0,0,0,0,0,0,0,0
781,0.9751543,-0.9748543,0.11622037,-0.10821968,0.12557071,0.10069891,-1.2922704,8.227225,5.234922,0,0,0,0,0,0,0,0,0,0,0,0,0,0,0,0,0,0,0,0,0
782,0.9651744,-0.9704405,0.10917546,-0.14443867,-0.01823999,0.11454735,-0.53570265,7.6107183,5.422867,0,0,0,0,0,0,0,0,0,0,0,0,0,0,0,0,0,0,0,0,0
783,0.96399456,-0.9668346,0.10734019,-0.094371244,-0.009717875,-0.050568637,-0.55964464,7.7328224,5.5485625,0,0,0,0,0,0,0,0,0,0,0,0,0,0,0,0,0,0,0,0,0
784,0.9697584,-0.96465147,0.11226894,-0.040042758,0.02756638,-0.07720025,-0.8242039,7.906402,5.507861,0,0,0,0,0,0,0,0,0,0,0,0,0,0,0,0,0,0,0,0,0
785,0.96996146,-0.964234,0.11337079,-0.0038237667,9.347695E-4,-0.014349644,-0.46866497,7.6813474,5.281609,0,0,0,0,0,0,0,0,0,0,0,0,0,0,0,0,0,0,0,0,0
786,0.9703256,-0.9625643,0.11395899,-0.065609105,-0.021435784,-0.08785289,-0.3369839,7.516147,5.3594203,0,0,0,0,0,0,0,0,0,0,0,0,0,0,0,0,0,0,0,0,0
787,0.9788437,-0.9593139,0.11989776,-0.06987016,-0.03741475,-0.20183618,-0.6003461,7.5760026,5.4168816,0,0,0,0,0,0,0,0,0,0,0,0,0,0,0,0,0,0,0,0,0
788,0.9886293,-0.95732236,0.12717728,-0.019802732,-0.023566313,-0.16987824,-0.98461545,7.978228,5.5222263,0,0,0,0,0,0,0,0,0,0,0,0,0,0,0,0,0,0,0,0,0
789,0.99875534,-0.9563943,0.13502279,0.011089935,0.0105221495,-0.14218138,-0.99299514,7.7579618,5.529409,0,0,0,0,0,0,0,0,0,0,0,0,0,0,0,0,0,0,0,0,0
790,1.0078579,-0.9555021,0.14194381,-0.008084824,-0.025696842,-0.18372668,-1.0911574,7.840562,5.657499,0,0,0,0,0,0,0,0,0,0,0,0,0,0,0,0,0,0,0,0,0
791,1.0196007,-0.9542935,0.14942093,0.0068288776,-0.084286384,-0.1922488,-1.0348936,7.76275,5.5042696,0,0,0,0,0,0,0,0,0,0,0,0,0,0,0,0,0,0,0,0,0
792,1.0287968,-0.95454067,0.1558661,0.03878894,-0.06617396,-0.15283668,-1.3293805,8.108712,5.365406,0,0,0,0,0,0,0,0,0,0,0,0,0,0,0,0,0,0,0,0,0
793,1.0344894,-0.9558581,0.15991926,0.037723675,-0.02995497,-0.047375504,-1.1522095,7.810634,5.2528787,0,0,0,0,0,0,0,0,0,0,0,0,0,0,0,0,0,0,0,0,0
794,1.0380403,-0.95624447,0.16340707,0.018548917,0.011590343,-0.07933344,-1.0301052,7.7531734,5.329493,0,0,0,0,0,0,0,0,0,0,0,0,0,0,0,0,0,0,0,0,0
795,1.0420794,-0.95659083,0.16786705,0.018548917,0.009459814,-0.1134219,-1.003769,7.7352166,5.2780175,1,0,0,0,0,0,0,0,0,0,0,0,0,0,0,0,0,0,0,0,0
796,1.0476639,-0.9563597,0.17386988,-0.0016911073,0.0105250785,-0.11448716,-0.9498995,7.7316256,5.2157683,1,0,0,0,0,0,0,0,0,0,0,0,0,0,0,0,0,0,0,0,0
797,1.052546,-0.9553647,0.17901322,-0.032583777,0.026504045,-0.11235663,-1.18094,7.785495,5.4025164,1,0,0,0,0,0,0,0,0,0,0,0,0,0,0,0,0,0,0,0,0
798,1.0617367,-0.9531973,0.18600613,0.0057657436,-0.022498118,-0.0015691345,-2.3876176,8.618677,6.183026,1,0,0,0,0,0,0,0,0,0,0,0,0,0,0,0,0,0,0,0,0
799,1.0656458,-0.9546503,0.18634614,0.26355973,-0.14819932,0.49910516,-5.0822916,10.366445,7.606379,1,0,0,0,0,0,0,0,0,0,0,0,0,0,0,0,0,0,0,0,0
800,1.0163584,-0.97311765,0.1356603,0.631076,-0.52530295,2.0767617,-9.505579,12.681638,7.2664022,1,0,0,0,0,0,0,0,0,0,0,0,0,0,0,0,0,0,0,0,0
801,0.82543707,-1.0086198,-0.028655846,1.2510599,0.3748455,3.9697366,-3.1681273,7.9087963,6.95755,1,0,0,0,0,0,0,0,0,0,0,0,0,0,0,0,0,0,0,0,0
802,0.65119827,-1.0330552,-0.17129467,1.7613215,0.3301044,3.7609448,-2.6557682,8.463054,7.1742253,1,0,0,0,0,0,0,0,0,0,0,0,0,0,0,0,0,0,0,0,0
803,0.3801,-1.050468,-0.40234056,1.9690481,0.20333794,4.6131563,-5.7383027,8.246379,4.1922474,1,0,0,0,0,0,0,0,0,0,0,0,0,0,0,0,0,0,0,0,0
804,0.121511936,-1.0194083,-0.61165655,2.4271119,1.6265312,6.409192,-3.128623,4.936395,5.2157683,1,0,0,0,0,0,0,0,0,0,0,0,0,0,0,0,0,0,0,0,0
805,-0.2313545,-0.917651,-0.86019385,2.4750488,1.593508,6.6882915,-0.57041854,2.3195326,5.6946087,1,0,0,0,0,0,0,0,0,0,0,0,0,0,0,0,0,0,0,0,0
806,-0.49567172,-0.7814126,-1.0294163,2.4430907,1.1567496,6.786296,1.1869255,3.4938884,3.1016884,1,0,0,0,0,0,0,0,0,0,0,0,0,0,0,0,0,0,0,0,0
807,-0.71712035,-0.6419249,-1.1006389,2.4995499,3.4950051,6.8619294,13.971963,-1.4597149,1.6938977,1,0,0,0,0,0,0,0,0,0,0,0,0,0,0,0,0,0,0,0,0
808,-0.91608137,-0.49817947,-1.059504,1.5770308,4.0052667,4.1497664,20.538061,-5.65675,7.145495,1,0,0,0,0,0,0,0,0,0,0,0,0,0,0,0,0,0,0,0,0
809,-0.9982924,-0.45704955,-1.028629,0.75572044,0.77113587,0.66740626,14.0713215,-3.443311,7.255628,1,0,0,0,0,0,0,0,0,0,0,0,0,0,0,0,0,0,0,0,0
810,-1.0215586,-0.46027327,-1.0481404,0.015361645,-0.89387244,-0.610911,6.839636,0.5657798,4.012682,1,0,0,0,0,0,0,0,0,0,0,0,0,0,0,0,0,0,0,0,0
811,-1.0077623,-0.4748689,-1.0602276,0.38713893,-0.41024238,-0.348856,4.9374423,3.0569468,3.5170822,1,0,0,0,0,0,0,0,0,0,0,0,0,0,0,0,0,0,0,0,0
812,-1.0279012,-0.4817404,-1.0729973,0.54799384,0.082975045,0.047422376,8.893861,3.344251,3.8762126,1,0,0,0,0,0,0,0,0,0,0,0,0,0,0,0,0,0,0,0,0
813,-1.0431893,-0.49415335,-1.0861198,0.38074735,-0.2600401,-0.37974867,9.485229,4.5126214,2.8119898,1,0,0,0,0,0,0,0,0,0,0,0,0,0,0,0,0,0,0,0,0
814,-1.035878,-0.5096346,-1.0985428,-0.16999437,-0.47309297,-0.7057196,8.107366,5.485864,2.0721815,1,0,0,0,0,0,0,0,0,0,0,0,0,0,0,0,0,0,0,0,0
815,-1.0053729,-0.5292417,-1.0995948,-0.27012923,-0.23447375,-0.61943316,6.4685345,5.849783,3.181894,1,0,0,0,0,0,0,0,0,0,0,0,0,0,0,0,0,0,0,0,0
816,-0.99407196,-0.53665096,-1.0998257,-0.14016697,-0.19292845,-0.4468603,8.328829,4.5868416,3.5697548,1,0,0,0,0,0,0,0,0,0,0,0,0,0,0,0,0,0,0,0,0
817,-0.9846021,-0.548991,-1.1074746,-0.22751865,-0.5710973,-0.90066296,10.0825815,3.594445,2.9484594,1,0,0,0,0,0,0,0,0,0,0,0,0,0,0,0,0,0,0,0,0
818,-0.96154,-0.56814605,-1.111811,-0.62273175,-0.76177967,-1.4556657,8.223484,3.6124015,2.8383262,1,0,0,0,0,0,0,0,0,0,0,0,0,0,0,0,0,0,0,0,0
819,-0.90745515,-0.6004781,-1.1082076,-0.9210058,-0.77243227,-1.6293038,7.641693,3.9679403,3.21661,1,0,0,0,0,0,0,0,0,0,0,0,0,0,0,0,0,0,0,0,0
820,-0.84817994,-0.6342553,-1.0973401,-0.9636164,-0.91411245,-1.9616663,9.341577,3.784784,4.047398,1,0,0,0,0,0,0,0,0,0,0,0,0,0,0,0,0,0,0,0,0
821,-0.80174315,-0.6695752,-1.090939,-1.0765344,-1.472311,-2.874598,10.354323,3.2808046,4.048595,1,0,0,0,0,0,0,0,0,0,0,0,0,0,0,0,0,0,0,0,0
822,-0.69958955,-0.74694943,-1.0712829,-1.3684169,-1.5724459,-3.963298,7.960122,3.296367,2.1643584,1,0,0,0,0,0,0,0,0,0,0,0,0,0,0,0,0,0,0,0,0
823,-0.5841183,-0.81909806,-1.0126455,-1.3662863,-0.4251561,-4.5246925,4.0982747,3.2724247,2.315193,1,0,0,0,0,0,0,0,0,0,0,0,0,0,0,0,0,0,0,0,0
824,-0.4270525,-0.9178586,-0.85890317,-0.69943076,0.8414433,-4.87623,4.243124,2.894141,3.345897,1,0,0,0,0,0,0,0,0,0,0,0,0,0,0,0,0,0,0,0,0
825,-0.11252025,-1.0118839,-0.6159931,-0.8336541,0.14476039,-5.682635,2.4139538,3.4938884,5.535394,1,0,0,0,0,0,0,0,0,0,0,0,0,0,0,0,0,0,0,0,0
826,0.20478137,-1.0513417,-0.37422243,-1.4813349,-1.7034734,-5.5675864,-5.7299232,7.918373,5.020641,1,0,0,0,0,0,0,0,0,0,0,0,0,0,0,0,0,0,0,0,0
827,0.5410305,-1.0211142,-0.15619382,-2.4049191,-2.156211,-3.3390532,-6.6564794,10.875213,4.4328647,1,0,0,0,0,0,0,0,0,0,0,0,0,0,0,0,0,0,0,0,0
828,0.6767355,-0.96442574,-0.08849894,-2.1396682,-1.2528665,-1.931839,-3.5021186,9.36088,8.857349,1,0,0,0,0,0,0,0,0,0,0,0,0,0,0,0,0,0,0,0,0
829,0.7929623,-0.914102,-0.043764718,-1.1383197,-1.7087997,-1.1968064,-5.963358,11.850849,9.64145,1,0,0,0,0,0,0,0,0,0,0,0,0,0,0,0,0,0,0,0,0
830,0.8236889,-0.8963854,-0.060703065,-0.33404508,-1.1090559,0.019725502,-2.7443538,9.742755,7.1371155,1,0,0,0,0,0,0,0,0,0,0,0,0,0,0,0,0,0,0,0,0
831,0.82001275,-0.9020414,-0.07412042,0.56929916,0.3716617,0.19123307,-0.65062433,8.121881,6.563704,1,0,0,0,0,0,0,0,0,0,0,0,0,0,0,0,0,0,0,0,0
832,0.8160199,-0.92787373,-0.05855263,0.8292237,0.558083,0.07938031,-0.52612585,8.28708,6.0321913,0,0,0,0,0,0,0,0,0,0,0,0,0,0,0,0,0,0,0,0,0
833,0.8038138,-0.9484175,-0.0594794,0.63641083,-0.013964019,0.16140567,0.3645172,7.712472,4.43885,0,0,0,0,0,0,0,0,0,0,0,0,0,0,0,0,0,0,0,0,0
834,0.784097,-0.9643446,-0.07841564,0.15917234,-0.38680658,0.036769733,0.84694886,7.2731357,3.2321723,0,0,0,0,0,0,0,0,0,0,0,0,0,0,0,0,0,0,0,0,0
835,0.77621055,-0.9661316,-0.08747929,-0.14123222,-0.20890741,-0.039929308,0.7188591,7.7831006,3.7229836,0,0,0,0,0,0,0,0,0,0,0,0,0,0,0,0,0,0,0,0,0
836,0.7722424,-0.962496,-0.08638408,-0.08370794,0.16286987,-0.12301993,1.1282675,7.3748894,4.76925,0,0,0,0,0,0,0,0,0,0,0,0,0,0,0,0,0,0,0,0,0
837,0.783864,-0.9623772,-0.06967728,-0.017661551,0.2608742,-0.3722918,0.29508537,7.7531734,5.380968,0,0,0,0,0,0,0,0,0,0,0,0,0,0,0,0,0,0,0,0,0
