nr,fusedX,fusedY,fusedZ,gyroX,gyroY,gyroZ,accX,accY,accZ,q,w,e,r,t,z,u,i,o,p,a,s,d,f,g,h,j,k,l,y
0,-3.1286662,-0.70388705,-0.29746413,-0.08494978,0.02317536,-0.05958743,2.0031986,6.2099605,7.3789296,0,0,0,0,0,0,0,0,0,0,0,0,0,0,0,0,0,0,0,0,0
1,-3.1130698,-0.69478935,-0.27974,-0.07429713,0.06898173,-0.08621904,1.9098247,6.1967926,7.4567413,0,0,0,0,0,0,0,0,0,0,0,0,0,0,0,0,0,0,0,0,0
2,-3.1136272,-0.6942177,-0.27929825,-0.059383433,0.0040006004,-0.09687168,1.934964,5.969343,7.3430166,0,0,0,0,0,0,0,0,0,0,0,0,0,0,0,0,0,0,0,0,0
3,-3.1152956,-0.6939575,-0.27832478,-0.10838559,0.010392187,-0.09367589,1.7314568,6.1405287,7.374141,0,0,0,0,0,0,0,0,0,0,0,0,0,0,0,0,0,0,0,0,0
4,-3.1171331,-0.69337064,-0.27723643,-0.097732954,0.091352284,-0.08089272,1.757793,6.202778,7.7189064,0,0,0,0,0,0,0,0,0,0,0,0,0,0,0,0,0,0,0,0,0
5,-3.102264,-0.69007915,-0.26283243,-0.045534994,0.015718509,-0.08515377,1.7146974,6.1477113,7.463924,0,0,0,0,0,0,0,0,0,0,0,0,0,0,0,0,0,0,0,0,0
6,-3.1035948,-0.68965757,-0.2620473,-0.068970814,8.048073E-4,-0.09367589,1.709909,6.097433,7.5201874,0,0,0,0,0,0,0,0,0,0,0,0,0,0,0,0,0,0,0,0,0
7,-3.1052303,-0.6891421,-0.26110867,-0.058318168,0.055133294,-0.09900221,1.6656162,6.1046157,7.6231384,0,0,0,0,0,0,0,0,0,0,0,0,0,0,0,0,0,0,0,0,0
8,-3.105467,-0.6892662,-0.26051602,-0.049801644,0.09880594,-0.11497932,1.6847697,6.127361,7.147889,0,0,0,0,0,0,0,0,0,0,0,0,0,0,0,0,0,0,0,0,0
9,-3.106495,-0.6886866,-0.25949404,-0.17550285,0.2106587,-0.14480671,1.5746366,5.881955,7.4088573,0,0,0,0,0,0,0,0,0,0,0,0,0,0,0,0,0,0,0,0,0
10,-3.078148,-0.6672867,-0.21079919,-0.1797639,0.17870077,-0.122436166,1.2562077,5.846042,7.705738,0,0,0,0,0,0,0,0,0,0,0,0,0,0,0,0,0,0,0,0,0
11,-3.081709,-0.6669597,-0.20942535,-0.07962905,0.0849575,-0.06491189,1.0945991,5.8867435,7.6506715,0,0,0,0,0,0,0,0,0,0,0,0,0,0,0,0,0,0,0,0,0
12,-3.084447,-0.6667348,-0.20846064,-0.072172195,-0.007720504,-0.0073876088,1.2346599,5.917868,7.5932107,0,0,0,0,0,0,0,0,0,0,0,0,0,0,0,0,0,0,0,0,0
13,-3.0858376,-0.6663259,-0.2077971,-0.0870859,0.005062669,0.008591358,1.3555671,5.8639984,7.654263,0,0,0,0,0,0,0,0,0,0,0,0,0,0,0,0,0,0,0,0,0
14,-3.0853019,-0.6521502,-0.2009771,-0.12756595,0.07430486,0.011787151,1.4441526,5.7383027,7.5968018,0,0,0,0,0,0,0,0,0,0,0,0,0,0,0,0,0,0,0,0,0
15,-3.0867102,-0.65162206,-0.20011258,-0.1382186,0.12650281,0.02350506,1.2693758,5.8388596,7.979874,0,0,0,0,0,0,0,0,0,0,0,0,0,0,0,0,0,0,0,0,0
16,-3.088262,-0.6515661,-0.19914714,-0.015713183,0.047673248,0.05013667,1.1915642,5.9741316,7.787141,0,0,0,0,0,0,0,0,0,0,0,0,0,0,0,0,0,0,0,0,0
17,-3.0873005,-0.6518089,-0.19929487,-0.025300562,-0.036482643,0.06824616,1.5483003,5.9047,7.3897038,0,0,0,0,0,0,0,0,0,0,0,0,0,0,0,0,0,0,0,0,0
18,-3.0870206,-0.65156823,-0.19920282,-0.09986907,0.06045642,0.020309266,1.5147815,5.8268886,7.681796,0,0,0,0,0,0,0,0,0,0,0,0,0,0,0,0,0,0,0,0,0
19,-3.086916,-0.63858885,-0.18792078,-0.057258494,0.06365221,0.03628823,1.2945149,5.817312,7.526173,0,0,0,0,0,0,0,0,0,0,0,0,0,0,0,0,0,0,0,0,0
20,-3.0859609,-0.6388821,-0.18825084,-0.11371751,0.029563751,0.044810347,1.5518916,5.8508306,7.4854717,0,0,0,0,0,0,0,0,0,0,0,0,0,0,0,0,0,0,0,0,0
21,-3.0847769,-0.638613,-0.18878552,-0.17763337,0.09880594,-0.029758161,1.6739959,5.6664767,7.666234,0,0,0,0,0,0,0,0,0,0,0,0,0,0,0,0,0,0,0,0,0
22,-3.0848246,-0.63834834,-0.18872742,-0.18082917,0.15206917,-0.047867656,1.4549265,5.6844335,7.7368627,0,0,0,0,0,0,0,0,0,0,0,0,0,0,0,0,0,0,0,0,0
23,-3.0744364,-0.6184739,-0.16254266,-0.17763337,0.15313442,-0.04147607,1.4980221,5.8244944,7.7213006,0,0,0,0,0,0,0,0,0,0,0,0,0,0,0,0,0,0,0,0,0
24,-3.0741665,-0.6184845,-0.16327742,-0.20319973,0.047673248,-0.13521934,1.5985786,5.752668,7.9152308,0,0,0,0,0,0,0,0,0,0,0,0,0,0,0,0,0,0,0,0,0
25,-3.0751286,-0.61856985,-0.1633209,-0.07216661,-0.20692176,-0.23748659,1.3136685,5.727529,7.867347,0,0,0,0,0,0,0,0,0,0,0,0,0,0,0,0,0,0,0,0,0
26,-3.0764556,-0.61904085,-0.16319151,-0.031686556,-0.32623136,-0.17463599,1.1736077,5.6185927,7.4208283,0,0,0,0,0,0,0,0,0,0,0,0,0,0,0,0,0,0,0,0,0
27,-3.076703,-0.61940384,-0.16320606,-0.21491204,-0.071633175,-0.09687168,1.2466309,5.6545057,7.536947,0,0,0,0,0,0,0,0,0,0,0,0,0,0,0,0,0,0,0,0,0
28,-3.05757,-0.58907676,-0.15492351,-0.25219628,-0.026892068,-0.088349566,1.1556512,5.547964,8.462306,0,0,0,0,0,0,0,0,0,0,0,0,0,0,0,0,0,0,0,0,0
29,-3.057168,-0.58919024,-0.1555061,-0.113711916,-0.31451347,-0.08621904,1.4657004,5.41748,7.8733325,0,0,0,0,0,0,0,0,0,0,0,0,0,0,0,0,0,0,0,0,0
30,-3.0578752,-0.5893562,-0.15557417,-0.1712362,-0.16431119,-0.19594127,1.2765584,5.489306,7.965509,0,0,0,0,0,0,0,0,0,0,0,0,0,0,0,0,0,0,0,0,0
31,-3.060741,-0.58919334,-0.15435535,-0.1264951,-0.13341852,-0.19700654,0.77617025,5.395932,8.177396,0,0,0,0,0,0,0,0,0,0,0,0,0,0,0,0,0,0,0,0,0
32,-3.0362978,-0.585799,-0.1888253,-0.04660026,-0.4604547,-0.15226543,0.9449615,5.203199,7.8170686,0,0,0,0,0,0,0,0,0,0,0,0,0,0,0,0,0,0,0,0,0
33,-3.0391855,-0.5852771,-0.18710476,-0.011446533,-0.73422766,-0.12669909,0.8192659,5.0020857,7.941567,0,0,0,0,0,0,0,0,0,0,0,0,0,0,0,0,0,0,0,0,0
34,-3.0385294,-0.58486193,-0.18704416,0.13023363,-0.7416845,-0.03828214,1.5554829,5.381567,8.354567,0,0,0,0,0,0,0,0,0,0,0,0,0,0,0,0,0,0,0,0,0
35,-3.030407,-0.58665794,-0.18907116,0.06418724,-0.5392842,-0.19913708,1.9624972,5.5192337,6.615179,0,0,0,0,0,0,0,0,0,0,0,0,0,0,0,0,0,0,0,0,0
36,-3.0313592,-0.5872327,-0.18817748,-0.50253344,0.10733125,-0.38555834,1.0431237,5.125387,7.1742253,0,0,0,0,0,0,0,0,0,0,0,0,0,0,0,0,0,0,0,0,0
37,-2.9662902,-0.52065843,-0.13843007,-0.58668935,-0.069502644,-0.14587384,1.3316251,5.5826797,8.1402855,0,0,0,0,0,0,0,0,0,0,0,0,0,0,0,0,0,0,0,0,0
38,-2.9689338,-0.52163416,-0.13874736,-0.5302303,-0.2921429,-0.20339812,1.2143092,5.0583496,7.807492,0,0,0,0,0,0,0,0,0,0,0,0,0,0,0,0,0,0,0,0,0
39,-2.9691653,-0.5211935,-0.14046317,-0.46737972,-1.0932218,-0.36212254,1.9624972,4.8105497,8.59279,0,0,0,0,0,0,0,0,0,0,0,0,0,0,0,0,0,0,0,0,0
40,-2.9690742,-0.5214726,-0.14202538,-0.21384677,-0.76298976,-1.0428265,1.9565117,5.349245,8.808268,0,0,0,0,0,0,0,0,0,0,0,0,0,0,0,0,0,0,0,0,0
41,-2.8227456,-0.49148685,-0.14208525,-0.59095037,-0.39653882,-0.6657229,1.8739117,4.8524485,9.210494,0,0,0,0,0,0,0,0,0,0,0,0,0,0,0,0,0,0,0,0,0
42,-2.827711,-0.49112567,-0.14261925,-0.5110457,-0.51797336,-0.50061065,1.6021699,4.8859673,9.40203,0,0,0,0,0,0,0,0,0,0,0,0,0,0,0,0,0,0,0,0,0
43,-2.8326945,-0.49160522,-0.1429316,0.17604986,-0.992016,-0.6518782,1.3627497,4.895544,8.540117,0,0,0,0,0,0,0,0,0,0,0,0,0,0,0,0,0,0,0,0,0
44,-2.8372219,-0.49262318,-0.14331642,0.5318482,-0.84500957,-0.61033285,1.438167,5.369596,8.790312,0,0,0,0,0,0,0,0,0,0,0,0,0,0,0,0,0,0,0,0,0
45,-2.7461133,-0.5557027,-0.20102231,0.36992797,-0.75020105,-0.659335,2.9177837,5.1158104,8.655039,0,0,0,0,0,0,0,0,0,0,0,0,0,0,0,0,0,0,0,0,0
46,-2.7464309,-0.5553904,-0.20289412,0.6351788,-1.1699152,-1.2026199,2.434155,5.026028,8.021772,0,0,0,0,0,0,0,0,0,0,0,0,0,0,0,0,0,0,0,0,0
47,-2.745146,-0.5577195,-0.20361015,1.3989735,-0.6703062,-1.1621399,1.8846856,6.3392477,7.7452426,0,0,0,0,0,0,0,0,0,0,0,0,0,0,0,0,0,0,0,0,0
48,-2.7326314,-0.5609881,-0.20820792,1.2295964,-1.120913,0.4954116,3.090166,6.467337,6.6762314,0,0,0,0,0,0,0,0,0,0,0,0,0,0,0,0,0,0,0,0,0
49,-2.7283468,-0.5636463,-0.21186227,0.39762485,-1.342488,0.46238843,2.5921721,5.659294,6.289568,0,0,0,0,0,0,0,0,0,0,0,0,0,0,0,0,0,0,0,0,0
50,-2.7948766,-0.580911,-0.40777946,0.22931308,-0.8929465,0.5007379,3.2242415,6.332065,7.608773,0,0,0,0,0,0,0,0,0,0,0,0,0,0,0,0,0,0,0,0,0
51,-2.7891293,-0.5830814,-0.41163245,0.21120359,-0.5616492,0.36864513,4.274099,6.2362967,6.241684,0,0,0,0,0,0,0,0,0,0,0,0,0,0,0,0,0,0,0,0,0
52,-2.7854052,-0.5849684,-0.41394243,0.32625213,-0.1728277,0.28555453,4.252551,6.8001313,7.3059063,0,0,0,0,0,0,0,0,0,0,0,0,0,0,0,0,0,0,0,0,0
53,-2.787304,-0.5846101,-0.41510078,0.79603374,-0.5371481,0.32816508,3.7557542,5.2618566,7.359776,0,0,0,0,0,0,0,0,0,0,0,0,0,0,0,0,0,0,0,0,0
54,-2.8921275,-0.70761216,-0.50641847,1.1166784,-0.13341291,0.2141818,4.3507133,6.5523314,5.2325277,0,0,0,0,0,0,0,0,0,0,0,0,0,0,0,0,0,0,0,0,0
55,-2.8847892,-0.7093992,-0.50864345,0.91321284,-0.04499597,0.09061112,3.8515224,6.806117,5.42167,0,0,0,0,0,0,0,0,0,0,0,0,0,0,0,0,0,0,0,0,0
56,-2.8801005,-0.7103877,-0.5111684,-0.11796312,-0.30065945,0.15665752,3.6049197,5.763442,4.8937483,0,0,0,0,0,0,0,0,0,0,0,0,0,0,0,0,0,0,0,0,0
57,-2.881437,-0.7106439,-0.5103634,-0.5291552,0.23623385,-0.66466135,3.066224,5.965752,6.0226145,0,0,0,0,0,0,0,0,0,0,0,0,0,0,0,0,0,0,0,0,0
58,-2.8945282,-0.712057,-0.50396496,-0.4908057,0.6974933,-0.9863712,1.1317092,5.929839,5.8705826,0,0,0,0,0,0,0,0,0,0,0,0,0,0,0,0,0,0,0,0,0
59,-2.7248447,-0.6304431,-0.32960954,-1.5507438,0.16912217,-0.30247146,0.47090954,7.221511,7.575254,0,0,0,0,0,0,0,0,0,0,0,0,0,0,0,0,0,0,0,0,0
60,-2.7399533,-0.62873214,-0.32448316,-1.1118548,0.19362326,0.28875032,0.75342536,6.2362967,10.261548,0,0,0,0,0,0,0,0,0,0,0,0,0,0,0,0,0,0,0,0,0
61,-2.7547064,-0.6273221,-0.31926414,-0.33527705,0.27245283,0.6583971,0.6001964,5.903503,9.434352,0,0,0,0,0,0,0,0,0,0,0,0,0,0,0,0,0,0,0,0,0
62,-2.7700772,-0.6282858,-0.31521118,-0.35977814,0.44609094,0.63496125,0.950947,6.5487404,8.117541,0,0,0,0,0,0,0,0,0,0,0,0,0,0,0,0,0,0,0,0,0
63,-2.8196268,-0.5678033,-0.19307017,-0.39280134,1.0394433,0.3249693,0.64927757,5.752668,7.678205,0,0,0,0,0,0,0,0,0,0,0,0,0,0,0,0,0,0,0,0,0
64,-2.8283563,-0.5688111,-0.19340916,-0.6942712,1.4666142,0.049065813,1.5698482,5.355231,7.3645644,0,0,0,0,0,0,0,0,0,0,0,0,0,0,0,0,0,0,0,0,0
65,-2.8346612,-0.5695395,-0.19407128,-0.64313847,1.8575664,-0.5783749,1.7146974,5.2822075,7.439982,0,0,0,0,0,0,0,0,0,0,0,0,0,0,0,0,0,0,0,0,0
66,-2.8623087,-0.57380956,-0.18795827,-0.52382886,1.8937852,-0.51126325,-0.74414784,6.651691,6.6415157,0,0,0,0,0,0,0,0,0,0,0,0,0,0,0,0,0,0,0,0,0
67,-2.842893,-0.57883877,-0.18815035,-0.81145024,1.6999072,0.32603458,1.3483845,7.4405804,6.7360864,0,0,0,0,0,0,0,0,0,0,0,0,0,0,0,0,0,0,0,0,0
68,-2.883199,-0.45874995,-0.013040796,-0.8380819,0.80508506,0.504999,2.6987143,6.6026096,7.2424603,0,0,0,0,0,0,0,0,0,0,0,0,0,0,0,0,0,0,0,0,0
69,-2.868513,-0.46258017,-0.022784822,-0.49400148,0.21066749,0.56039274,3.5354877,5.6066217,6.467936,0,0,0,0,0,0,0,0,0,0,0,0,0,0,0,0,0,0,0,0,0
70,-2.8534167,-0.46618077,-0.034513064,-0.71983755,1.0053548,0.029891053,4.2681136,5.583877,6.117185,0,0,0,0,0,0,0,0,0,0,0,0,0,0,0,0,0,0,0,0,0
71,-2.8411436,-0.46813214,-0.044158388,-0.99893683,1.707364,-0.5890276,4.3519106,5.5683146,7.657854,0,0,0,0,0,0,0,0,0,0,0,0,0,0,0,0,0,0,0,0,0
72,-2.6727893,-0.35883158,0.17780133,-0.6335511,1.1204033,-1.3155379,5.2676926,5.5000796,9.572019,0,0,0,0,0,0,0,0,0,0,0,0,0,0,0,0,0,0,0,0,0
73,-2.6643405,-0.3623697,0.16805705,0.04395707,0.29801917,-1.880128,2.4281695,4.7339354,7.595605,0,0,0,0,0,0,0,0,0,0,0,0,0,0,0,0,0,0,0,0,0
74,-2.65826,-0.36140272,0.1563362,0.1867025,0.36832663,-1.4870455,3.2386067,2.5911248,7.291541,0,0,0,0,0,0,0,0,0,0,0,0,0,0,0,0,0,0,0,0,0
75,-2.6488323,-0.3637933,0.1452166,-0.65058386,0.34702772,-1.5232687,3.30325,4.4298716,7.8206596,0,0,0,0,0,0,0,0,0,0,0,0,0,0,0,0,0,0,0,0,0
76,-2.6400695,-0.36465484,0.13436307,-0.99359906,-0.0013137374,-1.5168772,3.5318964,3.9318779,8.413225,0,0,0,0,0,0,0,0,0,0,0,0,0,0,0,0,0,0,0,0,0
77,-2.440792,-0.19604823,0.16641721,-1.1374097,-0.058838017,-1.9078292,2.386271,2.4558525,9.469068,0,0,0,0,0,0,0,0,0,0,0,0,0,0,0,0,0,0,0,0,0
78,-2.4381227,-0.1984313,0.1630293,-0.9605758,0.015730493,-2.2646928,0.030376434,3.3249476,10.196905,0,0,0,0,0,0,0,0,0,0,0,0,0,0,0,0,0,0,0,0,0
79,-2.432638,-0.19954357,0.1578779,-1.1278224,-0.084404364,-1.9280692,0.938976,2.582745,9.902418,0,0,0,0,0,0,0,0,0,0,0,0,0,0,0,0,0,0,0,0,0
80,-2.4303956,-0.19765447,0.1547509,-1.4410101,0.13077906,-2.381872,-0.0163105,1.1270704,10.685322,0,0,0,0,0,0,0,0,0,0,0,0,0,0,0,0,0,0,0,0,0
81,-2.0616527,0.07881653,0.18315837,-1.577364,-0.018357968,-3.127557,-2.7696424,2.2451627,11.805809,0,0,0,0,0,0,0,0,0,0,0,0,0,0,0,0,0,0,0,0,0
82,-2.058561,0.073280305,0.18194862,-1.0958644,-0.5318154,-2.1858633,-1.4671967,2.405574,11.900379,0,0,0,0,0,0,0,0,0,0,0,0,0,0,0,0,0,0,0,0,0
83,-2.052771,0.06792307,0.17744605,-0.5994512,-0.5051838,-1.7672143,0.41704002,1.903989,9.652225,0,0,0,0,0,0,0,0,0,0,0,0,0,0,0,0,0,0,0,0,0
84,-2.0531285,0.065478206,0.17809193,-0.6132996,-0.82582843,-1.8939807,-2.3171384,0.6051345,10.885238,0,0,0,0,0,0,0,0,0,0,0,0,0,0,0,0,0,0,0,0,0
85,-2.0551085,0.062634744,0.18039516,-0.10090744,-1.694019,-0.4878317,-2.9923031,0.7954735,9.909601,0,0,0,0,0,0,0,0,0,0,0,0,0,0,0,0,0,0,0,0,0
86,-2.0510929,0.034027614,-0.025023801,0.82800317,-1.1731046,-0.07344386,1.0131962,-1.6753427,8.948329,0,0,0,0,0,0,0,0,0,0,0,0,0,0,0,0,0,0,0,0,0
87,-2.0509326,0.037106458,-0.030476851,1.2445215,-0.630885,-1.9898546,2.7346272,-1.7735049,8.913613,0,0,0,0,0,0,0,0,0,0,0,0,0,0,0,0,0,0,0,0,0
88,-2.0453978,0.033062574,-0.026624385,0.8642221,-0.2718909,-2.6183605,-1.304391,1.3461399,7.973889,0,0,0,0,0,0,0,0,0,0,0,0,0,0,0,0,0,0,0,0,0
89,-2.0414677,0.030300971,-0.022741973,-2.528645,-0.4519206,-0.7967584,-2.2465093,1.4203602,13.286622,0,0,0,0,0,0,0,0,0,0,0,0,0,0,0,0,0,0,0,0,0
90,-2.072639,0.26966244,-0.078524105,-1.6913472,0.07751583,0.41444725,-0.52268416,0.87208796,16.49126,0,0,0,0,0,0,0,0,0,0,0,0,0,0,0,0,0,0,0,0,0
91,-2.0729117,0.26646203,-0.07625586,-0.19465071,0.109473765,-0.53150755,-0.35030162,-1.1055226,10.036493,0,0,0,0,0,0,0,0,0,0,0,0,0,0,0,0,0,0,0,0,0
92,-2.0635142,0.25844708,-0.07527778,0.9664902,0.8029625,-0.9235259,0.2662053,1.3150153,9.730036,0,0,0,0,0,0,0,0,0,0,0,0,0,0,0,0,0,0,0,0,0
93,-2.058355,0.2533742,-0.07476985,0.5201444,0.040233172,-0.9299175,0.4038719,-0.038905777,8.090008,0,0,0,0,0,0,0,0,0,0,0,0,0,0,0,0,0,0,0,0,0
94,-2.0461588,0.24431594,-0.07386866,0.036514334,-0.0982512,-0.60181606,0.274585,1.869273,9.239224,0,0,0,0,0,0,0,0,0,0,0,0,0,0,0,0,0,0,0,0,0
95,-1.9701849,0.23382688,-0.109618045,-0.5664253,-0.20690818,-0.29182413,-0.47839144,0.17776948,10.408792,0,0,0,0,0,0,0,0,0,0,0,0,0,0,0,0,0,0,0,0,0
96,-1.967158,0.22913365,-0.1065582,-0.6420591,-0.39545998,-0.46972328,-0.40417117,0.0077811554,9.312247,0,0,0,0,0,0,0,0,0,0,0,0,0,0,0,0,0,0,0,0,0
97,-1.9616954,0.22340897,-0.10285916,-0.84126353,-0.13233967,-0.1490787,-0.8028058,0.5859809,10.21965,0,0,0,0,0,0,0,0,0,0,0,0,0,0,0,0,0,0,0,0,0
98,-1.9578266,0.21920903,-0.10163159,0.52120966,0.05834267,0.03734258,0.35718498,-0.11552023,8.605958,0,0,0,0,0,0,0,0,0,0,0,0,0,0,0,0,0,0,0,0,0
99,-1.9586602,0.19022028,-0.1033523,0.06208068,-0.040726922,0.002188852,-0.45205522,-0.3728969,10.714052,0,0,0,0,0,0,0,0,0,0,0,0,0,0,0,0,0,0,0,0,0
100,-1.9540896,0.18624146,-0.10060301,2.9534457E-4,-0.014095313,-0.0020722055,-0.33473933,0.08559271,9.809045,0,0,0,0,0,0,0,0,0,0,0,0,0,0,0,0,0,0,0,0,0
101,-1.9493333,0.18239178,-0.0979638,-0.003965713,-0.022617428,0.002188852,-0.3096002,0.061650693,9.870096,0,0,0,0,0,0,0,0,0,0,0,0,0,0,0,0,0,0,0,0,0
102,-1.9445506,0.17875251,-0.0954499,-0.0029004486,-0.09399015,-0.0010069412,-0.27129298,-0.004189853,9.7803135,0,0,0,0,0,0,0,0,0,0,0,0,0,0,0,0,0,0,0,0,0
103,-1.938629,0.17479134,-0.09329817,-0.003965713,0.1414333,0.012841497,-0.119261175,0.18974048,9.825804,0,0,0,0,0,0,0,0,0,0,0,0,0,0,0,0,0,0,0,0,0
104,-1.9332043,0.17000252,-0.1294603,0.0024258734,0.041298438,0.0032541165,-0.44606972,0.048482586,10.29387,0,0,0,0,0,0,0,0,0,0,0,0,0,0,0,0,0,0,0,0,0
105,-1.9278597,0.16654748,-0.12612383,2.9534457E-4,-0.01835637,0.0011235876,-0.36586395,0.026934769,9.787497,0,0,0,0,0,0,0,0,0,0,0,0,0,0,0,0,0,0,0,0,0
106,-1.9224032,0.16306071,-0.12297886,2.9534457E-4,-0.002377404,5.832323E-5,-0.3036147,0.076015905,9.751583,0,0,0,0,0,0,0,0,0,0,0,0,0,0,0,0,0,0,0,0,0
107,-1.9172264,0.15973216,-0.119905494,2.9534457E-4,-0.0013121394,5.832323E-5,-0.3000234,0.032920275,9.773131,0,0,0,0,0,0,0,0,0,0,0,0,0,0,0,0,0,0,0,0,0
108,-1.9122881,0.15658818,-0.11704983,-7.627293E-4,8.2238414E-4,-0.0010093381,-0.2964321,0.032920275,9.740809,0,0,0,0,0,0,0,0,0,0,0,0,0,0,0,0,0,0,0,0,0
109,-1.9070158,0.15323657,-0.11410536,-7.627293E-4,8.2238414E-4,0.0021864553,-0.2940379,0.107140526,9.742006,0,0,0,0,0,0,0,0,0,0,0,0,0,0,0,0,0,0,0,0,0
110,-1.9022433,0.15013874,-0.1110491,3.025351E-4,0.0018876486,0.0011211908,-0.37783495,0.01616086,9.7563715,0,0,0,0,0,0,0,0,0,0,0,0,0,0,0,0,0,0,0,0,0
111,-1.897399,0.14702724,-0.10815708,-7.627293E-4,-0.0013081448,0.0011211908,-0.32875383,0.05327099,9.794679,0,0,0,0,0,0,0,0,0,0,0,0,0,0,0,0,0,0,0,0,0
112,-1.8925586,0.14393836,-0.105421,3.025351E-4,-0.0013081448,0.0011211908,-0.27967268,0.0724246,9.759963,0,0,0,0,0,0,0,0,0,0,0,0,0,0,0,0,0,0,0,0,0
113,-1.8882352,0.1410221,-0.10271031,-7.627293E-4,-2.4288028E-4,5.5926383E-5,-0.3000234,0.006584055,9.7958765,0,0,0,0,0,0,0,0,0,0,0,0,0,0,0,0,0,0,0,0,0
114,-1.8836815,0.1381051,-0.10006284,-7.627293E-4,0.0018876486,5.5926383E-5,-0.29044658,0.047285482,9.788693,0,0,0,0,0,0,0,0,0,0,0,0,0,0,0,0,0,0,0,0,0
115,-1.8792087,0.13523145,-0.097356305,-7.627293E-4,-2.4288028E-4,5.5926383E-5,-0.34431612,0.054468088,9.759963,0,0,0,0,0,0,0,0,0,0,0,0,0,0,0,0,0,0,0,0,0
116,-1.8749539,0.13247411,-0.09463268,-7.627293E-4,8.2238414E-4,0.0011211908,-0.37903205,0.025737667,9.757569,0,0,0,0,0,0,0,0,0,0,0,0,0,0,0,0,0,0,0,0,0
117,-1.8707509,0.12966798,-0.09188006,0.0013677995,-0.0013081448,-0.0020746025,-0.28924948,0.06404489,9.775525,0,0,0,0,0,0,0,0,0,0,0,0,0,0,0,0,0,0,0,0,0
118,-1.8665411,0.1269778,-0.089479454,3.025351E-4,8.2238414E-4,0.0011211908,-0.27488428,0.047285482,9.762358,0,0,0,0,0,0,0,0,0,0,0,0,0,0,0,0,0,0,0,0,0
119,-1.8624966,0.1243783,-0.087071635,0.0013677995,0.002952913,5.5926383E-5,-0.3024176,0.02932897,9.7803135,0,0,0,0,0,0,0,0,0,0,0,0,0,0,0,0,0,0,0,0,0
120,-1.8584177,0.121767335,-0.08466388,-7.627293E-4,0.0018876486,5.5926383E-5,-0.32635963,0.060453594,9.792285,0,0,0,0,0,0,0,0,0,0,0,0,0,0,0,0,0,0,0,0,0
121,-1.8546385,0.1192106,-0.082123026,3.025351E-4,8.2238414E-4,0.0011211908,-0.35269585,0.046088383,9.779117,0,0,0,0,0,0,0,0,0,0,0,0,0,0,0,0,0,0,0,0,0
122,-1.8508573,0.116776295,-0.07982891,3.025351E-4,0.0018876486,-0.003139867,-0.319177,0.024540568,9.792285,0,0,0,0,0,0,0,0,0,0,0,0,0,0,0,0,0,0,0,0,0
123,-1.8470608,0.11434658,-0.07760929,-7.627293E-4,-2.4288028E-4,0.0011211908,-0.3048118,0.046088383,9.781511,0,0,0,0,0,0,0,0,0,0,0,0,0,0,0,0,0,0,0,0,0
124,-1.8433274,0.11195779,-0.07542218,-7.627293E-4,8.2238414E-4,0.0011211908,-0.3096002,0.049679685,9.749189,0,0,0,0,0,0,0,0,0,0,0,0,0,0,0,0,0,0,0,0,0
125,-1.8396163,0.109590404,-0.073284365,0.002433064,-2.4288028E-4,5.5926383E-5,-0.3084031,0.06284779,9.797073,0,0,0,0,0,0,0,0,0,0,0,0,0,0,0,0,0,0,0,0,0
126,-1.8361031,0.10743427,-0.07121941,3.025351E-4,0.0018876486,0.0021864553,-0.3084031,0.03172317,9.768343,0,0,0,0,0,0,0,0,0,0,0,0,0,0,0,0,0,0,0,0,0
127,-1.8327184,0.105244875,-0.06909993,-7.627293E-4,-0.0013081448,5.5926383E-5,-0.33713353,0.019752163,9.696517,0,0,0,0,0,0,0,0,0,0,0,0,0,0,0,0,0,0,0,0,0
128,-1.8291857,0.102992676,-0.06707838,3.025351E-4,0.0050834417,0.0011211908,-0.3143886,0.0724246,9.828198,0,0,0,0,0,0,0,0,0,0,0,0,0,0,0,0,0,0,0,0,0
129,-1.8258165,0.1008338,-0.06509949,-7.627293E-4,-0.0013081448,5.5926383E-5,-0.3119944,0.048482586,9.787497,0,0,0,0,0,0,0,0,0,0,0,0,0,0,0,0,0,0,0,0,0
130,-1.822527,0.09882831,-0.063092396,-7.627293E-4,8.2238414E-4,5.5926383E-5,-0.2916437,0.04369418,9.76954,0,0,0,0,0,0,0,0,0,0,0,0,0,0,0,0,0,0,0,0,0
131,-1.8193048,0.09676253,-0.06122278,-7.627293E-4,8.2238414E-4,0.0011211908,-0.2976292,0.04369418,9.791088,0,0,0,0,0,0,0,0,0,0,0,0,0,0,0,0,0,0,0,0,0
132,-1.8160899,0.09470614,-0.059365273,0.0013677995,8.2238414E-4,5.5926383E-5,-0.3096002,0.05925649,9.77792,0,0,0,0,0,0,0,0,0,0,0,0,0,0,0,0,0,0,0,0,0
133,-1.8129421,0.092688136,-0.057494324,3.025351E-4,8.2238414E-4,0.0011211908,-0.33354223,0.060453594,9.753978,0,0,0,0,0,0,0,0,0,0,0,0,0,0,0,0,0,0,0,0,0
134,-1.8099998,0.09078666,-0.055689532,-0.0018279938,-0.0013081448,5.5926383E-5,-0.3203741,0.023343466,9.7803135,0,0,0,0,0,0,0,0,0,0,0,0,0,0,0,0,0,0,0,0,0
135,-1.8071663,0.08884028,-0.05408387,3.025351E-4,8.2238414E-4,0.0032517198,-0.3179799,0.048482586,9.775525,0,0,0,0,0,0,0,0,0,0,0,0,0,0,0,0,0,0,0,0,0
136,-1.8041235,0.08690087,-0.0523085,-0.0018477011,0.0012650015,6.3250074E-4,-0.33952773,0.0796072,9.785102,0,0,0,0,0,0,0,0,0,0,0,0,0,0,0,0,0,0,0,0,0
137,-1.8013151,0.08509299,-0.050606225,0.0013480921,0.0012650015,6.3250074E-4,-0.3203741,0.034117375,9.762358,0,0,0,0,0,0,0,0,0,0,0,0,0,0,0,0,0,0,0,0,0
138,-1.7985824,0.08333366,-0.04896159,-7.8243675E-4,0.0012650015,-4.3276369E-4,-0.3096002,0.02813187,9.7863,0,0,0,0,0,0,0,0,0,0,0,0,0,0,0,0,0,0,0,0,0
139,-1.7959459,0.08154943,-0.0475492,2.828277E-4,-0.0019307918,6.3250074E-4,-0.33234513,0.04129998,9.770737,0,0,0,0,0,0,0,0,0,0,0,0,0,0,0,0,0,0,0,0,0
140,-1.7931645,0.07978027,-0.045970514,-0.0018477011,-0.0019307918,0.0016977652,-0.307206,0.0676362,9.785102,0,0,0,0,0,0,0,0,0,0,0,0,0,0,0,0,0,0,0,0,0
141,-1.7904414,0.07804919,-0.044429436,-0.0018477011,0.002330266,-4.3276369E-4,-0.3048118,0.0664391,9.803059,0,0,0,0,0,0,0,0,0,0,0,0,0,0,0,0,0,0,0,0,0
142,-1.787955,0.07644555,-0.042907987,2.828277E-4,0.004460795,0.0016977652,-0.3107973,0.020949265,9.818622,0,0,0,0,0,0,0,0,0,0,0,0,0,0,0,0,0,0,0,0,0
143,-1.7854388,0.07481477,-0.041402567,2.828277E-4,-8.6552737E-4,-4.3276369E-4,-0.3155857,0.049679685,9.7479925,0,0,0,0,0,0,0,0,0,0,0,0,0,0,0,0,0,0,0,0,0
144,-1.7830298,0.073028184,-0.040061545,0.0013480921,1.9973709E-4,-4.3276369E-4,-0.3024176,0.05686229,9.751583,0,0,0,0,0,0,0,0,0,0,0,0,0,0,0,0,0,0,0,0,0
145,-1.7807,0.07150809,-0.038592782,-0.0018477011,0.0033955304,0.0016977652,-0.32875383,0.02932897,9.846154,0,0,0,0,0,0,0,0,0,0,0,0,0,0,0,0,0,0,0,0,0
146,-1.7783113,0.06996887,-0.03718702,-6.492787E-4,-0.002130529,-4.993427E-4,-0.3096002,0.05327099,9.764751,0,0,0,0,0,0,0,0,0,0,0,0,0,0,0,0,0,0,0,0,0
147,-1.7759265,0.068442985,-0.035861917,0.0014812502,-0.002130529,-4.993427E-4,-0.28326398,0.061650693,9.742006,0,0,0,0,0,0,0,0,0,0,0,0,0,0,0,0,0,0,0,0,0
148,-1.7736555,0.0670898,-0.034614712,-6.492787E-4,0.002130529,-4.993427E-4,-0.32995093,0.032920275,9.775525,0,0,0,0,0,0,0,0,0,0,0,0,0,0,0,0,0,0,0,0,0
149,-1.7714405,0.06565152,-0.03324658,0.0014812502,0.0,-4.993427E-4,-0.33114803,0.047285482,9.7958765,0,0,0,0,0,0,0,0,0,0,0,0,0,0,0,0,0,0,0,0,0
150,-1.7692605,0.064244404,-0.03198372,0.0014812502,0.0,0.0016311861,-0.2928408,0.046088383,9.792285,0,0,0,0,0,0,0,0,0,0,0,0,0,0,0,0,0,0,0,0,0
151,-1.7670257,0.062811345,-0.030690942,-6.492787E-4,0.0,-4.993427E-4,-0.319177,0.0724246,9.770737,0,0,0,0,0,0,0,0,0,0,0,0,0,0,0,0,0,0,0,0,0
152,-1.7649194,0.061467927,-0.029451635,-6.492787E-4,-0.002130529,0.0016311861,-0.3048118,0.04249708,9.743204,0,0,0,0,0,0,0,0,0,0,0,0,0,0,0,0,0,0,0,0,0
153,-1.7629681,0.060258806,-0.02822252,4.1598576E-4,0.0010652645,0.0026964506,-0.3107973,0.032920275,9.775525,0,0,0,0,0,0,0,0,0,0,0,0,0,0,0,0,0,0,0,0,0
154,-1.7609849,0.058986247,-0.027014447,-0.0027798074,0.0010652645,0.0016311861,-0.3143886,0.032920275,9.765948,0,0,0,0,0,0,0,0,0,0,0,0,0,0,0,0,0,0,0,0,0
155,-1.7590668,0.05774401,-0.025744382,-0.0027798074,0.0010652645,5.659217E-4,-0.35628715,0.030526072,9.759963,0,0,0,0,0,0,0,0,0,0,0,0,0,0,0,0,0,0,0,0,0
156,-1.7571573,0.056519307,-0.0245835,4.1598576E-4,0.0,-4.993427E-4,-0.3155857,0.034117375,9.767146,0,0,0,0,0,0,0,0,0,0,0,0,0,0,0,0,0,0,0,0,0
157,-1.7556275,0.055096474,-0.023692433,5.824333E-4,-9.488843E-4,6.4901233E-4,-0.3131915,0.04129998,9.7324295,0,0,0,0,0,0,0,0,0,0,0,0,0,0,0,0,0,0,0,0,0
158,-1.753696,0.05388324,-0.022627411,-4.828311E-4,0.0011816446,0.0017142767,-0.28924948,0.054468088,9.782708,0,0,0,0,0,0,0,0,0,0,0,0,0,0,0,0,0,0,0,0,0
159,-1.7517803,0.052674416,-0.021486739,-0.0015480955,0.002246909,-4.1625206E-4,-0.33593643,0.06404489,9.759963,0,0,0,0,0,0,0,0,0,0,0,0,0,0,0,0,0,0,0,0,0
160,-1.7500154,0.051548667,-0.020391503,-4.828311E-4,1.16380135E-4,-0.0014815165,-0.32516253,0.035314474,9.768343,0,0,0,0,0,0,0,0,0,0,0,0,0,0,0,0,0,0,0,0,0
161,-1.7482401,0.050420996,-0.019306347,5.824333E-4,0.0011816446,6.4901233E-4,-0.33114803,0.047285482,9.774328,0,0,0,0,0,0,0,0,0,0,0,0,0,0,0,0,0,0,0,0,0
162,-1.7462851,0.049226105,-0.018396996,5.824333E-4,-9.488843E-4,-4.1625206E-4,-0.32276833,0.05207389,9.810242,0,0,0,0,0,0,0,0,0,0,0,0,0,0,0,0,0,0,0,0,0
163,-1.744476,0.048096124,-0.017433355,5.824333E-4,-9.488843E-4,6.4901233E-4,-0.2916437,0.0712275,9.788693,0,0,0,0,0,0,0,0,0,0,0,0,0,0,0,0,0,0,0,0,0
164,-1.7428396,0.0470548,-0.016440507,5.824333E-4,0.0011816446,0.0017142767,-0.3155857,0.038905777,9.794679,0,0,0,0,0,0,0,0,0,0,0,0,0,0,0,0,0,0,0,0,0
165,-1.7412583,0.046041377,-0.015418586,5.824333E-4,1.16380135E-4,6.4901233E-4,-0.33833063,0.035314474,9.758766,0,0,0,0,0,0,0,0,0,0,0,0,0,0,0,0,0,0,0,0,0
166,-1.7396241,0.044813853,-0.014404342,-4.828311E-4,1.16380135E-4,6.4901233E-4,-0.33952773,0.04369418,9.7958765,0,0,0,0,0,0,0,0,0,0,0,0,0,0,0,0,0,0,0,0,0
167,-1.7380204,0.04380864,-0.013512409,5.824333E-4,-9.488843E-4,6.4901233E-4,-0.295235,0.05327099,9.775525,0,0,0,0,0,0,0,0,0,0,0,0,0,0,0,0,0,0,0,0,0
168,-1.7361993,0.04287737,-0.012601378,-1.8322548E-4,-3.3289514E-5,0.0014812502,-0.3131915,0.026934769,9.7719345,0,0,0,0,0,0,0,0,0,0,0,0,0,0,0,0,0,0,0,0,0
169,-1.7343663,0.041940175,-0.011710548,-1.8322548E-4,-0.001098554,-6.492787E-4,-0.3119944,0.038905777,9.764751,0,0,0,0,0,0,0,0,0,0,0,0,0,0,0,0,0,0,0,0,0
170,-1.732577,0.04101924,-0.010753823,0.0019473034,-0.001098554,4.1598576E-4,-0.35269585,0.040102877,9.758766,0,0,0,0,0,0,0,0,0,0,0,0,0,0,0,0,0,0,0,0,0
171,-1.7312192,0.03999168,-0.009986836,0.0019473034,-0.001098554,4.1598576E-4,-0.33952773,0.044891283,9.779117,0,0,0,0,0,0,0,0,0,0,0,0,0,0,0,0,0,0,0,0,0
172,-1.7298499,0.039114684,-0.009155877,-1.8322548E-4,-3.3289514E-5,-0.0017145431,-0.3084031,0.037708677,9.768343,0,0,0,0,0,0,0,0,0,0,0,0,0,0,0,0,0,0,0,0,0
173,-1.7284702,0.03823807,-0.008368471,-1.8322548E-4,0.0010319749,-0.0017145431,-0.295235,0.046088383,9.768343,0,0,0,0,0,0,0,0,0,0,0,0,0,0,0,0,0,0,0,0,0
174,-1.7271135,0.03736917,-0.0075108656,8.8203896E-4,0.0010319749,-0.0017145431,-0.33713353,0.050876785,9.764751,0,0,0,0,0,0,0,0,0,0,0,0,0,0,0,0,0,0,0,0,0
175,-1.7256873,0.036251377,-0.0067856815,8.8203896E-4,-3.3289514E-5,4.1598576E-4,-0.35389295,0.05566519,9.791088,0,0,0,0,0,0,0,0,0,0,0,0,0,0,0,0,0,0,0,0,0
176,-1.7242997,0.035381064,-0.0059865788,-1.8322548E-4,-3.3289514E-5,-6.492787E-4,-0.32516253,0.0712275,9.799467,0,0,0,0,0,0,0,0,0,0,0,0,0,0,0,0,0,0,0,0,0
177,-1.7230437,0.034586452,-0.0052673095,-0.00124849,-3.3289514E-5,4.1598576E-4,-0.2928408,0.04249708,9.765948,0,0,0,0,0,0,0,0,0,0,0,0,0,0,0,0,0,0,0,0,0
178,-1.7218517,0.033825096,-0.0045348783,5.491438E-4,-0.0018144116,5.158543E-4,-0.307206,0.034117375,9.794679,0,0,0,0,0,0,0,0,0,0,0,0,0,0,0,0,0,0,0,0,0
179,-1.7206064,0.033042222,-0.0038458891,-0.001581385,0.0035119106,-5.494101E-4,-0.2928408,0.05207389,9.7863,0,0,0,0,0,0,0,0,0,0,0,0,0,0,0,0,0,0,0,0,0
180,-1.7193774,0.032226715,-0.0031815928,5.491438E-4,3.1611722E-4,-5.494101E-4,-0.33593643,0.040102877,9.757569,0,0,0,0,0,0,0,0,0,0,0,0,0,0,0,0,0,0,0,0,0
181,-1.7181754,0.0314635,-0.00241398,-5.1612064E-4,-7.491472E-4,-0.002679939,-0.34431612,0.05805939,9.77792,0,0,0,0,0,0,0,0,0,0,0,0,0,0,0,0,0,0,0,0,0
182,-1.7170478,0.030747212,-0.0017316401,-5.1612064E-4,3.1611722E-4,5.158543E-4,-0.3096002,0.04249708,9.762358,0,0,0,0,0,0,0,0,0,0,0,0,0,0,0,0,0,0,0,0,0
183,-1.7159323,0.030037947,-0.0010412191,0.0016144082,3.1611722E-4,5.158543E-4,-0.3203741,0.046088383,9.767146,0,0,0,0,0,0,0,0,0,0,0,0,0,0,0,0,0,0,0,0,0
184,-1.7147614,0.029270668,-4.979078E-4,5.491438E-4,0.0013813816,-0.0016146746,-0.3048118,0.046088383,9.779117,0,0,0,0,0,0,0,0,0,0,0,0,0,0,0,0,0,0,0,0,0
185,-1.7137799,0.028637562,1.4960425E-4,-5.1612064E-4,3.1611722E-4,-5.494101E-4,-0.3119944,0.023343466,9.783905,0,0,0,0,0,0,0,0,0,0,0,0,0,0,0,0,0,0,0,0,0
186,-1.712652,0.02793155,7.9623004E-4,5.491438E-4,3.1611722E-4,-5.494101E-4,-0.3179799,0.065242,9.7863,0,0,0,0,0,0,0,0,0,0,0,0,0,0,0,0,0,0,0,0,0
187,-1.7115632,0.027249677,0.001411581,-0.001581385,-7.491472E-4,5.158543E-4,-0.3096002,0.060453594,9.805453,0,0,0,0,0,0,0,0,0,0,0,0,0,0,0,0,0,0,0,0,0
188,-1.7105255,0.026598247,0.0019917903,-5.1612064E-4,3.1611722E-4,5.158543E-4,-0.2976292,0.05207389,9.7803135,0,0,0,0,0,0,0,0,0,0,0,0,0,0,0,0,0,0,0,0,0
189,-1.709383,0.026138887,0.0026209117,-4.4954158E-4,2.663161E-4,-2.8309404E-4,-0.3084031,0.0664391,9.79827,0,0,0,0,0,0,0,0,0,0,0,0,0,0,0,0,0,0,0,0,0
190,-1.7084292,0.025521737,0.0032736824,-4.4954158E-4,0.0013315806,7.821704E-4,-0.34431612,0.046088383,9.76116,0,0,0,0,0,0,0,0,0,0,0,0,0,0,0,0,0,0,0,0,0
191,-1.7075675,0.02495147,0.003937662,-4.4954158E-4,-0.0018642128,-2.8309404E-4,-0.35748425,0.02932897,9.797073,0,0,0,0,0,0,0,0,0,0,0,0,0,0,0,0,0,0,0,0,0
192,-1.7066476,0.024368124,0.0044372925,-4.4954158E-4,2.663161E-4,-2.8309404E-4,-0.28326398,0.04129998,9.792285,0,0,0,0,0,0,0,0,0,0,0,0,0,0,0,0,0,0,0,0,0
193,-1.705757,0.023803663,0.004873904,-4.4954158E-4,0.002396845,7.821704E-4,-0.307206,0.0664391,9.781511,0,0,0,0,0,0,0,0,0,0,0,0,0,0,0,0,0,0,0,0,0
194,-1.7048376,0.023213802,0.005482853,-4.4954158E-4,2.663161E-4,-2.8309404E-4,-0.34551322,0.05566519,9.77792,0,0,0,0,0,0,0,0,0,0,0,0,0,0,0,0,0,0,0,0,0
195,-1.7040207,0.02267734,0.006089404,6.1572285E-4,2.663161E-4,-2.8309404E-4,-0.35030162,0.035314474,9.77792,0,0,0,0,0,0,0,0,0,0,0,0,0,0,0,0,0,0,0,0,0
196,-1.7032123,0.02215401,0.006613214,-0.0015148061,-7.9894834E-4,7.821704E-4,-0.3155857,0.034117375,9.773131,0,0,0,0,0,0,0,0,0,0,0,0,0,0,0,0,0,0,0,0,0
197,-1.7022631,0.021641817,0.006993419,-4.4954158E-4,-7.9894834E-4,-2.8309404E-4,-0.3024176,0.06284779,9.77792,0,0,0,0,0,0,0,0,0,0,0,0,0,0,0,0,0,0,0,0,0
198,-1.7014779,0.021134237,0.007487456,6.1572285E-4,2.663161E-4,0.0018474348,-0.3096002,0.036511578,9.764751,0,0,0,0,0,0,0,0,0,0,0,0,0,0,0,0,0,0,0,0,0
199,-1.7006743,0.020619823,0.0079704495,6.1572285E-4,0.0013315806,7.821704E-4,-0.3096002,0.044891283,9.782708,0,0,0,0,0,0,0,0,0,0,0,0,0,0,0,0,0,0,0,0,0
200,-1.6999059,0.020120628,0.008497314,-4.1625206E-4,0.0013315806,3.9947417E-4,-0.33593643,0.04249708,9.7863,0,0,0,0,0,0,0,0,0,0,0,0,0,0,0,0,0,0,0,0,0
201,-1.6991737,0.0196412,0.009020973,6.4901233E-4,2.663161E-4,-6.657903E-4,-0.33473933,0.049679685,9.7803135,0,0,0,0,0,0,0,0,0,0,0,0,0,0,0,0,0,0,0,0,0
202,-1.698457,0.01892582,0.009369117,6.4901233E-4,-7.9894834E-4,3.9947417E-4,-0.3096002,0.047285482,9.783905,0,0,0,0,0,0,0,0,0,0,0,0,0,0,0,0,0,0,0,0,0
203,-1.6977899,0.018494705,0.009807219,6.4901233E-4,-7.9894834E-4,-6.657903E-4,-0.3060089,0.025737667,9.781511,0,0,0,0,0,0,0,0,0,0,0,0,0,0,0,0,0,0,0,0,0
204,-1.6970695,0.018035466,0.010271194,6.4901233E-4,0.0013315806,3.9947417E-4,-0.32276833,0.04369418,9.775525,0,0,0,0,0,0,0,0,0,0,0,0,0,0,0,0,0,0,0,0,0
205,-1.6963196,0.01756066,0.010756939,6.4901233E-4,2.663161E-4,3.9947417E-4,-0.33713353,0.05566519,9.751583,0,0,0,0,0,0,0,0,0,0,0,0,0,0,0,0,0,0,0,0,0
206,-1.6956909,0.017041553,0.011215523,6.4901233E-4,2.663161E-4,3.9947417E-4,-0.3119944,0.040102877,9.7803135,0,0,0,0,0,0,0,0,0,0,0,0,0,0,0,0,0,0,0,0,0
207,-1.6950506,0.016630933,0.01164668,-4.1625206E-4,-7.9894834E-4,3.9947417E-4,-0.3203741,0.034117375,9.7719345,0,0,0,0,0,0,0,0,0,0,0,0,0,0,0,0,0,0,0,0,0
208,-1.6944704,0.01625305,0.0120613165,-4.1625206E-4,2.663161E-4,-6.657903E-4,-0.3215712,0.03172317,9.785102,0,0,0,0,0,0,0,0,0,0,0,0,0,0,0,0,0,0,0,0,0
209,-1.6937687,0.015813999,0.01248853,-0.002546781,-7.9894834E-4,3.9947417E-4,-0.32635963,0.05566519,9.76116,0,0,0,0,0,0,0,0,0,0,0,0,0,0,0,0,0,0,0,0,0
210,-1.6927645,0.015408436,0.01288128,5.158543E-4,3.3289514E-4,-0.0018309233,-0.3143886,0.04369418,9.782708,0,0,0,0,0,0,0,0,0,0,0,0,0,0,0,0,0,0,0,0,0
211,-1.6918895,0.015114488,0.01334784,5.158543E-4,-7.323693E-4,-7.656588E-4,-0.33234513,0.02813187,9.774328,0,0,0,0,0,0,0,0,0,0,0,0,0,0,0,0,0,0,0,0,0
212,-1.6909171,0.014717913,0.013753565,0.0015811187,3.3289514E-4,-0.0018309233,-0.32875383,0.046088383,9.770737,0,0,0,0,0,0,0,0,0,0,0,0,0,0,0,0,0,0,0,0,0
213,-1.689959,0.014329265,0.014114459,5.158543E-4,-0.0017976337,0.00136487,-0.3107973,0.046088383,9.770737,0,0,0,0,0,0,0,0,0,0,0,0,0,0,0,0,0,0,0,0,0
214,-1.6890309,0.013953267,0.014475637,-5.494101E-4,-7.323693E-4,-0.0018309233,-0.3143886,0.04369418,9.768343,0,0,0,0,0,0,0,0,0,0,0,0,0,0,0,0,0,0,0,0,0
215,-1.6880386,0.013668538,0.014710372,-5.494101E-4,-7.323693E-4,-7.656588E-4,-0.3048118,0.038905777,9.79827,0,0,0,0,0,0,0,0,0,0,0,0,0,0,0,0,0,0,0,0,0
216,-1.6874418,0.013271293,0.015060498,5.158543E-4,0.0013981595,-0.0018309233,-0.3143886,0.060453594,9.755175,0,0,0,0,0,0,0,0,0,0,0,0,0,0,0,0,0,0,0,0,0
217,-1.6869161,0.012916577,0.015348019,5.158543E-4,-7.323693E-4,-7.656588E-4,-0.28805238,0.04369418,9.782708,0,0,0,0,0,0,0,0,0,0,0,0,0,0,0,0,0,0,0,0,0
218,-1.6864707,0.012600775,0.015668757,5.158543E-4,3.3289514E-4,2.9960563E-4,-0.307206,0.02813187,9.785102,0,0,0,0,0,0,0,0,0,0,0,0,0,0,0,0,0,0,0,0,0
219,-1.6859641,0.0122541925,0.01600304,-5.494101E-4,-7.323693E-4,0.00136487,-0.3155857,0.046088383,9.742006,0,0,0,0,0,0,0,0,0,0,0,0,0,0,0,0,0,0,0,0,0
220,-1.685346,0.011974116,0.01626959,0.0015811187,3.3289514E-4,2.9960563E-4,-0.33473933,0.05327099,9.781511,0,0,0,0,0,0,0,0,0,0,0,0,0,0,0,0,0,0,0,0,0
221,-1.6848526,0.011637903,0.016562954,0.0015313176,-0.0016977652,-1.9973709E-4,-0.3024176,0.047285482,9.7719345,0,0,0,0,0,0,0,0,0,0,0,0,0,0,0,0,0,0,0,0,0
222,-1.6843153,0.011276447,0.016900135,0.0015313176,4.3276369E-4,-1.9973709E-4,-0.32635963,0.06284779,9.76116,0,0,0,0,0,0,0,0,0,0,0,0,0,0,0,0,0,0,0,0,0
223,-1.68386,0.010956635,0.017249499,4.660532E-4,-6.3250074E-4,8.6552737E-4,-0.32396543,0.04129998,9.785102,0,0,0,0,0,0,0,0,0,0,0,0,0,0,0,0,0,0,0,0,0
224,-1.6831524,0.01067814,0.017623564,4.660532E-4,4.3276369E-4,-0.0012650015,-0.32396543,0.0688333,9.755175,0,0,0,0,0,0,0,0,0,0,0,0,0,0,0,0,0,0,0,0,0
225,-1.6826758,0.010348594,0.017949127,4.660532E-4,-0.0016977652,0.0019307918,-0.32635963,0.06284779,9.775525,0,0,0,0,0,0,0,0,0,0,0,0,0,0,0,0,0,0,0,0,0
226,-1.6822644,0.010059433,0.018205132,4.660532E-4,-6.3250074E-4,-1.9973709E-4,-0.3000234,0.040102877,9.753978,0,0,0,0,0,0,0,0,0,0,0,0,0,0,0,0,0,0,0,0,0
227,-1.6817791,0.009738981,0.018391011,-5.9921126E-4,4.3276369E-4,8.6552737E-4,-0.2677017,0.05805939,9.7324295,0,0,0,0,0,0,0,0,0,0,0,0,0,0,0,0,0,0,0,0,0
228,-1.6813058,0.009420759,0.018635923,-0.0016644757,0.001498028,-1.9973709E-4,-0.3131915,0.0664391,9.797073,0,0,0,0,0,0,0,0,0,0,0,0,0,0,0,0,0,0,0,0,0
229,-1.6810312,0.008796937,0.01905236,4.660532E-4,0.0036285568,0.0019307918,-0.35748425,0.044891283,9.773131,0,0,0,0,0,0,0,0,0,0,0,0,0,0,0,0,0,0,0,0,0
230,-1.6806508,0.008529122,0.019381054,4.660532E-4,-0.0027630297,0.0019307918,-0.34671032,0.044891283,9.765948,0,0,0,0,0,0,0,0,0,0,0,0,0,0,0,0,0,0,0,0,0
231,-1.6801667,0.0082159145,0.019631406,-5.9921126E-4,4.3276369E-4,0.0019307918,-0.3096002,0.037708677,9.818622,0,0,0,0,0,0,0,0,0,0,0,0,0,0,0,0,0,0,0,0,0
232,-1.6798387,0.0079938425,0.019771228,6.4901233E-4,-0.002946255,0.0015478292,-0.25932196,0.02813187,9.738416,0,0,0,0,0,0,0,0,0,0,0,0,0,0,0,0,0,0,0,0,0
233,-1.6794178,0.0075307507,0.020073246,6.4901233E-4,0.002380067,-5.8269966E-4,-0.32635963,0.038905777,9.807847,0,0,0,0,0,0,0,0,0,0,0,0,0,0,0,0,0,0,0,0,0
234,-1.6790141,0.007264291,0.0203368,-4.1625206E-4,2.495382E-4,4.825648E-4,-0.32635963,0.05686229,9.811439,0,0,0,0,0,0,0,0,0,0,0,0,0,0,0,0,0,0,0,0,0
235,-1.6786563,0.0070125083,0.020707875,-4.1625206E-4,2.495382E-4,-5.8269966E-4,-0.38022915,0.05207389,9.7719345,0,0,0,0,0,0,0,0,0,0,0,0,0,0,0,0,0,0,0,0,0
236,-1.6782584,0.0067561488,0.020906448,-0.0014815165,-0.0018809907,-0.0016479641,-0.3000234,0.05686229,9.78989,0,0,0,0,0,0,0,0,0,0,0,0,0,0,0,0,0,0,0,0,0
237,-1.6779085,0.0065291296,0.021058464,6.4901233E-4,-8.1572623E-4,-5.8269966E-4,-0.2629133,0.044891283,9.776723,0,0,0,0,0,0,0,0,0,0,0,0,0,0,0,0,0,0,0,0,0
238,-1.6774206,0.006397745,0.021426413,0.0017142767,0.0013148027,-0.0016479641,-0.3012205,0.02932897,9.751583,0,0,0,0,0,0,0,0,0,0,0,0,0,0,0,0,0,0,0,0,0
239,-1.6769627,0.006106812,0.021656364,0.0017142767,0.0013148027,0.0015478292,-0.3215712,0.0796072,9.763555,0,0,0,0,0,0,0,0,0,0,0,0,0,0,0,0,0,0,0,0,0
240,-1.6766849,0.0059024915,0.021946194,6.4901233E-4,-8.1572623E-4,0.0026130937,-0.35269585,0.040102877,9.752781,0,0,0,0,0,0,0,0,0,0,0,0,0,0,0,0,0,0,0,0,0
241,-1.6763963,0.0056951917,0.022220511,-4.1625206E-4,0.0013148027,-5.8269966E-4,-0.35748425,0.05686229,9.759963,0,0,0,0,0,0,0,0,0,0,0,0,0,0,0,0,0,0,0,0,0
242,-1.6759528,0.0055162227,0.022399245,-9.1559475E-4,-8.8230526E-4,-0.00124849,-0.28805238,0.05925649,9.749189,0,0,0,0,0,0,0,0,0,0,0,0,0,0,0,0,0,0,0,0,0
243,-1.6756213,0.0052998066,0.022526007,-0.001980859,0.0012482236,-0.00124849,-0.28206688,0.05207389,9.812635,0,0,0,0,0,0,0,0,0,0,0,0,0,0,0,0,0,0,0,0,0
244,-1.6753871,0.0051313923,0.02267681,1.4966965E-4,1.8295916E-4,-1.8322548E-4,-0.2940379,0.04369418,9.759963,0,0,0,0,0,0,0,0,0,0,0,0,0,0,0,0,0,0,0,0,0
245,-1.6750447,0.0049002003,0.022922881,-9.1559475E-4,1.8295916E-4,8.8203896E-4,-0.34192193,0.06284779,9.805453,0,0,0,0,0,0,0,0,0,0,0,0,0,0,0,0,0,0,0,0,0
246,-1.6747603,0.0046914173,0.023257442,1.4966965E-4,-8.8230526E-4,0.0019473034,-0.38980597,0.054468088,9.825804,0,0,0,0,0,0,0,0,0,0,0,0,0,0,0,0,0,0,0,0,0
247,-1.6743711,0.0042928113,0.023479536,0.0022801985,-0.0030128341,-1.8322548E-4,-0.32516253,0.05805939,9.800665,0,0,0,0,0,0,0,0,0,0,0,0,0,0,0,0,0,0,0,0,0
248,-1.674088,0.0041104164,0.023568787,1.4966965E-4,1.8295916E-4,-1.8322548E-4,-0.27368718,0.047285482,9.753978,0,0,0,0,0,0,0,0,0,0,0,0,0,0,0,0,0,0,0,0,0
249,-1.6738281,0.0039411043,0.023651088,1.4966965E-4,-0.0019475697,8.8203896E-4,-0.27009588,0.04249708,9.753978,0,0,0,0,0,0,0,0,0,0,0,0,0,0,0,0,0,0,0,0,0
250,-1.6735768,0.0037705624,0.023803398,-9.1559475E-4,0.0033787524,-0.00124849,-0.32875383,0.05327099,9.785102,0,0,0,0,0,0,0,0,0,0,0,0,0,0,0,0,0,0,0,0,0
251,-1.6733466,0.0035226187,0.024220869,0.001214934,1.8295916E-4,8.8203896E-4,-0.35748425,0.073621705,9.8042555,0,0,0,0,0,0,0,0,0,0,0,0,0,0,0,0,0,0,0,0,0
252,-1.6730773,0.003336084,0.02448598,1.4966965E-4,-8.8230526E-4,-1.8322548E-4,-0.36706105,0.05686229,9.78989,0,0,0,0,0,0,0,0,0,0,0,0,0,0,0,0,0,0,0,0,0
253,-1.6728513,0.003179677,0.024661347,-0.0018642128,-0.0029795447,-5.9921126E-4,-0.2928408,0.04369418,9.765948,0,0,0,0,0,0,0,0,0,0,0,0,0,0,0,0,0,0,0,0,0
254,-1.6725444,0.0029950116,0.024695585,2.663161E-4,-8.490158E-4,-5.9921126E-4,-0.25812486,0.05925649,9.785102,0,0,0,0,0,0,0,0,0,0,0,0,0,0,0,0,0,0,0,0,0
255,-1.6722891,0.0028310055,0.02480099,-7.9894834E-4,0.0012815131,-5.9921126E-4,-0.2928408,0.050876785,9.76954,0,0,0,0,0,0,0,0,0,0,0,0,0,0,0,0,0,0,0,0,0
256,-1.6719415,0.002694646,0.025297698,0.0013315806,0.0012815131,4.660532E-4,-0.36586395,0.022146367,9.793482,0,0,0,0,0,0,0,0,0,0,0,0,0,0,0,0,0,0,0,0,0
257,-1.6716803,0.002512427,0.025568321,0.0013315806,0.0012815131,4.660532E-4,-0.38022915,0.06284779,9.787497,0,0,0,0,0,0,0,0,0,0,0,0,0,0,0,0,0,0,0,0,0
258,-1.6713293,0.0022970303,0.025704525,2.663161E-4,-0.0019142802,-5.9921126E-4,-0.3167828,0.08080431,9.7803135,0,0,0,0,0,0,0,0,0,0,0,0,0,0,0,0,0,0,0,0,0
259,-1.6711911,0.0022155487,0.02578032,-0.0018642128,-0.0019142802,-5.9921126E-4,-0.28805238,0.017357962,9.763555,0,0,0,0,0,0,0,0,0,0,0,0,0,0,0,0,0,0,0,0,0
260,-1.6708338,0.0022217685,0.025893532,-7.9894834E-4,-0.0019142802,-5.9921126E-4,-0.2928408,0.02932897,9.744401,0,0,0,0,0,0,0,0,0,0,0,0,0,0,0,0,0,0,0,0,0
261,-1.6704772,0.0019974313,0.026067585,2.663161E-4,0.003412042,-0.0016644757,-0.33833063,0.08798691,9.775525,0,0,0,0,0,0,0,0,0,0,0,0,0,0,0,0,0,0,0,0,0
262,-1.6703211,0.0018706066,0.02627965,-0.0018642128,0.0012815131,4.660532E-4,-0.35868135,0.04249708,9.776723,0,0,0,0,0,0,0,0,0,0,0,0,0,0,0,0,0,0,0,0,0
263,-1.6700903,0.001709681,0.026462585,2.663161E-4,-8.490158E-4,4.660532E-4,-0.34671032,0.060453594,9.782708,0,0,0,0,0,0,0,0,0,0,0,0,0,0,0,0,0,0,0,0,0
264,-1.6699466,0.0016030208,0.026531888,5.824333E-4,-5.9921126E-4,-3.9947417E-4,-0.2916437,0.035314474,9.742006,0,0,0,0,0,0,0,0,0,0,0,0,0,0,0,0,0,0,0,0,0
265,-1.6698864,0.0014174101,0.026518926,-4.828311E-4,0.0015313176,-3.9947417E-4,-0.307206,0.032920275,9.757569,0,0,0,0,0,0,0,0,0,0,0,0,0,0,0,0,0,0,0,0,0
266,-1.6696999,0.0012898966,0.02662191,-0.0015480955,4.660532E-4,6.657903E-4,-0.3096002,0.048482586,9.773131,0,0,0,0,0,0,0,0,0,0,0,0,0,0,0,0,0,0,0,0,0
267,-1.6694131,0.0011038303,0.026830135,-4.828311E-4,4.660532E-4,-3.9947417E-4,-0.36227265,0.078410104,9.77792,0,0,0,0,0,0,0,0,0,0,0,0,0,0,0,0,0,0,0,0,0
268,-1.6692832,9.997379E-4,0.027000306,-4.828311E-4,-5.9921126E-4,-3.9947417E-4,-0.35748425,0.044891283,9.758766,0,0,0,0,0,0,0,0,0,0,0,0,0,0,0,0,0,0,0,0,0
269,-1.6690518,9.4069674E-4,0.026893536,-4.828311E-4,-0.00272974,0.0017310547,-0.319177,0.050876785,9.783905,0,0,0,0,0,0,0,0,0,0,0,0,0,0,0,0,0,0,0,0,0
270,-1.668865,8.1990904E-4,0.02692244,-4.828311E-4,-0.0016644757,-3.9947417E-4,-0.27608138,0.049679685,9.739613,0,0,0,0,0,0,0,0,0,0,0,0,0,0,0,0,0,0,0,0,0
271,-1.668789,7.460865E-4,0.027057637,0.0016476978,0.0036618465,0.0017310547,-0.32995093,0.02813187,9.774328,0,0,0,0,0,0,0,0,0,0,0,0,0,0,0,0,0,0,0,0,0
272,-1.6686012,6.097644E-4,0.027266227,-4.828311E-4,4.660532E-4,-3.9947417E-4,-0.36586395,0.05925649,9.755175,0,0,0,0,0,0,0,0,0,0,0,0,0,0,0,0,0,0,0,0,0
273,-1.668516,5.279249E-4,0.027448356,-4.828311E-4,-5.9921126E-4,6.657903E-4,-0.35628715,0.034117375,9.791088,0,0,0,0,0,0,0,0,0,0,0,0,0,0,0,0,0,0,0,0,0
274,-1.668262,6.013701E-4,0.027418546,-5.494101E-4,-8.6552737E-4,6.823019E-4,-0.3000234,0.0712275,9.7803135,0,0,0,0,0,0,0,0,0,0,0,0,0,0,0,0,0,0,0,0,0
275,-1.668148,5.1442755E-4,0.027456382,5.158543E-4,1.9973709E-4,0.0017475663,-0.28565818,0.036511578,9.743204,0,0,0,0,0,0,0,0,0,0,0,0,0,0,0,0,0,0,0,0,0
276,-1.6680477,4.294238E-4,0.027555617,-5.494101E-4,-8.6552737E-4,-0.001448227,-0.3167828,0.036511578,9.768343,0,0,0,0,0,0,0,0,0,0,0,0,0,0,0,0,0,0,0,0,0
277,-1.6678029,2.6874858E-4,0.027689954,-5.494101E-4,0.0012650015,-3.8296255E-4,-0.33713353,0.074818805,9.832987,0,0,0,0,0,0,0,0,0,0,0,0,0,0,0,0,0,0,0,0,0
278,-1.667393,-7.755378E-5,0.027839718,-5.494101E-4,1.9973709E-4,0.0017475663,-0.33114803,0.0676362,9.774328,0,0,0,0,0,0,0,0,0,0,0,0,0,0,0,0,0,0,0,0,0
279,-1.6673306,-1.408854E-4,0.027950546,-0.002679939,0.0012650015,0.0017475663,-0.32635963,0.03172317,9.773131,0,0,0,0,0,0,0,0,0,0,0,0,0,0,0,0,0,0,0,0,0
280,-1.667129,-2.7157646E-4,0.028027657,-0.0016146746,-8.6552737E-4,-3.8296255E-4,-0.3107973,0.065242,9.768343,0,0,0,0,0,0,0,0,0,0,0,0,0,0,0,0,0,0,0,0,0
281,-1.6670902,-3.1885935E-4,0.028103773,-5.494101E-4,1.9973709E-4,-3.8296255E-4,-0.3107973,0.025737667,9.759963,0,0,0,0,0,0,0,0,0,0,0,0,0,0,0,0,0,0,0,0,0
282,-1.6668966,-4.435433E-4,0.028168023,0.0015811187,1.9973709E-4,-0.001448227,-0.3060089,0.06404489,9.768343,0,0,0,0,0,0,0,0,0,0,0,0,0,0,0,0,0,0,0,0,0
283,-1.6666694,-3.540035E-4,0.028603772,-5.494101E-4,1.9973709E-4,6.823019E-4,-0.33952773,0.065242,9.800665,0,0,0,0,0,0,0,0,0,0,0,0,0,0,0,0,0,0,0,0,0
284,-1.6666185,-4.1426165E-4,0.02870919,-5.494101E-4,0.0012650015,6.823019E-4,-0.33114803,0.032920275,9.7719345,0,0,0,0,0,0,0,0,0,0,0,0,0,0,0,0,0,0,0,0,0
285,-1.6665125,-5.052129E-4,0.028852183,-3.8296255E-4,1.8295916E-4,-0.001498028,-0.35030162,0.048482586,9.764751,0,0,0,0,0,0,0,0,0,0,0,0,0,0,0,0,0,0,0,0,0
286,-1.6663808,-6.014885E-4,0.028912615,-3.8296255E-4,1.8295916E-4,-0.0025632926,-0.3119944,0.05207389,9.785102,0,0,0,0,0,0,0,0,0,0,0,0,0,0,0,0,0,0,0,0,0
287,-1.6662519,-4.7926177E-4,0.028734686,-0.001448227,0.0012482236,6.3250074E-4,-0.3215712,0.040102877,9.793482,0,0,0,0,0,0,0,0,0,0,0,0,0,0,0,0,0,0,0,0,0
288,-1.6661892,-5.4666866E-4,0.028831359,6.823019E-4,1.8295916E-4,0.0016977652,-0.32875383,0.037708677,9.78989,0,0,0,0,0,0,0,0,0,0,0,0,0,0,0,0,0,0,0,0,0
289,-1.6659756,-6.863378E-4,0.028883278,-0.001448227,0.0012482236,-4.3276369E-4,-0.307206,0.073621705,9.7719345,0,0,0,0,0,0,0,0,0,0,0,0,0,0,0,0,0,0,0,0,0
290,-1.6658621,-7.7682274E-4,0.028961964,0.0017475663,-8.8230526E-4,6.3250074E-4,-0.2988263,0.020949265,9.755175,0,0,0,0,0,0,0,0,0,0,0,0,0,0,0,0,0,0,0,0,0
291,-1.6657819,-8.481129E-4,0.029020278,0.0017475663,1.8295916E-4,6.3250074E-4,-0.3119944,0.04249708,9.783905,0,0,0,0,0,0,0,0,0,0,0,0,0,0,0,0,0,0,0,0,0
292,-1.6655668,-0.0010480132,0.029135454,-3.8296255E-4,1.8295916E-4,0.0016977652,-0.32755673,0.06284779,9.752781,0,0,0,0,0,0,0,0,0,0,0,0,0,0,0,0,0,0,0,0,0
293,-1.6650906,-0.0011409605,0.029281985,-3.8296255E-4,-8.8230526E-4,-0.001498028,-0.35628715,0.044891283,9.77792,0,0,0,0,0,0,0,0,0,0,0,0,0,0,0,0,0,0,0,0,0
294,-1.6646808,-0.0012024492,0.029411593,-3.8296255E-4,-0.0019475697,-4.3276369E-4,-0.35030162,0.04129998,9.791088,0,0,0,0,0,0,0,0,0,0,0,0,0,0,0,0,0,0,0,0,0
295,-1.6642215,-0.0012849922,0.029440047,-3.8296255E-4,-8.8230526E-4,6.3250074E-4,-0.3012205,0.05207389,9.765948,0,0,0,0,0,0,0,0,0,0,0,0,0,0,0,0,0,0,0,0,0
296,-1.6640815,-0.0014014074,0.029623412,6.3250074E-4,-0.0018309233,0.0015978967,-0.28924948,0.025737667,9.753978,0,0,0,0,0,0,0,0,0,0,0,0,0,0,0,0,0,0,0,0,0
297,-1.6635208,-0.0015360552,0.029622119,0.0027630297,0.00136487,0.0015978967,-0.28924948,0.0796072,9.782708,0,0,0,0,0,0,0,0,0,0,0,0,0,0,0,0,0,0,0,0,0
298,-1.6629933,-0.0016608655,0.029685302,-4.3276369E-4,2.9960563E-4,-5.326322E-4,-0.3203741,0.076015905,9.76954,0,0,0,0,0,0,0,0,0,0,0,0,0,0,0,0,0,0,0,0,0
299,-1.662789,-0.0016264287,0.029766446,-4.3276369E-4,0.003495399,5.326322E-4,-0.33114803,-5.985504E-4,9.810242,0,0,0,0,0,0,0,0,0,0,0,0,0,0,0,0,0,0,0,0,0
300,-1.6623138,-0.0016392752,0.02990231,-4.3276369E-4,2.9960563E-4,-5.326322E-4,-0.32755673,0.038905777,9.76954,0,0,0,0,0,0,0,0,0,0,0,0,0,0,0,0,0,0,0,0,0
301,-1.6618502,-0.0017418799,0.029959692,6.3250074E-4,-7.656588E-4,0.0015978967,-0.3215712,0.0664391,9.809045,0,0,0,0,0,0,0,0,0,0,0,0,0,0,0,0,0,0,0,0,0
302,-1.6614397,-0.0018184237,0.029988812,-4.3276369E-4,2.9960563E-4,-5.326322E-4,-0.307206,0.054468088,9.775525,0,0,0,0,0,0,0,0,0,0,0,0,0,0,0,0,0,0,0,0,0
303,-1.6610699,-0.0018788279,0.030044826,6.3250074E-4,0.00136487,5.326322E-4,-0.3203741,0.047285482,9.767146,0,0,0,0,0,0,0,0,0,0,0,0,0,0,0,0,0,0,0,0,0
304,-1.6607203,-0.0019333347,0.03012579,-0.001498028,-7.656588E-4,5.326322E-4,-0.33234513,0.044891283,9.744401,0,0,0,0,0,0,0,0,0,0,0,0,0,0,0,0,0,0,0,0,0
305,-1.6605514,-0.002191088,0.030402591,0.0016977652,2.9960563E-4,0.0015978967,-0.34192193,0.038905777,9.774328,0,0,0,0,0,0,0,0,0,0,0,0,0,0,0,0,0,0,0,0,0
306,-1.6605506,-0.002250991,0.030469801,-4.3276369E-4,2.9960563E-4,-5.326322E-4,-0.33114803,0.050876785,9.8042555,0,0,0,0,0,0,0,0,0,0,0,0,0,0,0,0,0,0,0,0,0
307,-1.6605339,-0.0023124074,0.030473737,-6.825682E-4,-0.0020474382,-0.0015313176,-0.3000234,0.05207389,9.7803135,0,0,0,0,0,0,0,0,0,0,0,0,0,0,0,0,0,0,0,0,0
308,-1.6605632,-0.0023483601,0.030467063,3.8269625E-4,0.0011483551,5.9921126E-4,-0.2940379,0.040102877,9.752781,0,0,0,0,0,0,0,0,0,0,0,0,0,0,0,0,0,0,0,0,0
309,-1.6606795,-0.0022985672,0.030531516,-6.825682E-4,8.309063E-5,5.9921126E-4,-0.32396543,0.04129998,9.768343,0,0,0,0,0,0,0,0,0,0,0,0,0,0,0,0,0,0,0,0,0
310,-1.6606894,-0.002351593,0.030619208,3.8269625E-4,8.309063E-5,-0.0015313176,-0.34192193,0.048482586,9.788693,0,0,0,0,0,0,0,0,0,0,0,0,0,0,0,0,0,0,0,0,0
311,-1.6607215,-0.0023914655,0.030696385,3.8269625E-4,0.0011483551,-4.660532E-4,-0.33713353,0.04249708,9.774328,0,0,0,0,0,0,0,0,0,0,0,0,0,0,0,0,0,0,0,0,0
312,-1.6606578,-0.0024745502,0.030722769,3.8269625E-4,0.0022136194,-0.0036618465,-0.3131915,0.06404489,9.779117,0,0,0,0,0,0,0,0,0,0,0,0,0,0,0,0,0,0,0,0,0
313,-1.6606779,-0.0025144727,0.030754229,-6.825682E-4,8.309063E-5,-4.660532E-4,-0.3155857,0.04369418,9.768343,0,0,0,0,0,0,0,0,0,0,0,0,0,0,0,0,0,0,0,0,0
314,-1.6603838,-0.0026537015,0.030792482,0.0014479606,0.0022136194,-4.660532E-4,-0.3143886,0.0712275,9.792285,0,0,0,0,0,0,0,0,0,0,0,0,0,0,0,0,0,0,0,0,0
315,-1.6604459,-0.0026727503,0.030835947,-0.0017478326,0.0011483551,5.9921126E-4,-0.32276833,0.035314474,9.787497,0,0,0,0,0,0,0,0,0,0,0,0,0,0,0,0,0,0,0,0,0
316,-1.6604286,-0.0027307265,0.030874778,-6.825682E-4,-0.0031127026,-4.660532E-4,-0.3203741,0.054468088,9.770737,0,0,0,0,0,0,0,0,0,0,0,0,0,0,0,0,0,0,0,0,0
317,-1.6604127,-0.0027878564,0.030922048,4.660532E-4,1.9973709E-4,-2.4980452E-4,-0.32396543,0.054468088,9.743204,0,0,0,0,0,0,0,0,0,0,0,0,0,0,0,0,0,0,0,0,0
318,-1.6603243,-0.0026459119,0.030693889,-0.0016644757,-0.0019307918,-2.4980452E-4,-0.3143886,0.065242,9.757569,0,0,0,0,0,0,0,0,0,0,0,0,0,0,0,0,0,0,0,0,0
319,-1.660316,-0.002697162,0.030689497,-5.9921126E-4,1.9973709E-4,-0.0023803334,-0.2976292,0.050876785,9.763555,0,0,0,0,0,0,0,0,0,0,0,0,0,0,0,0,0,0,0,0,0
320,-1.6603252,-0.0027497767,0.03080984,4.660532E-4,1.9973709E-4,8.1545993E-4,-0.35868135,0.05207389,9.767146,0,0,0,0,0,0,0,0,0,0,0,0,0,0,0,0,0,0,0,0,0
321,-1.6602951,-0.002816272,0.030870263,-5.9921126E-4,-8.6552737E-4,8.1545993E-4,-0.32995093,0.05925649,9.749189,0,0,0,0,0,0,0,0,0,0,0,0,0,0,0,0,0,0,0,0,0
322,-1.6603831,-0.0028223176,0.030939383,4.660532E-4,-8.6552737E-4,-0.0013150689,-0.33593643,0.030526072,9.782708,0,0,0,0,0,0,0,0,0,0,0,0,0,0,0,0,0,0,0,0,0
323,-1.6604033,-0.002838195,0.030840779,-5.9921126E-4,0.0012650015,8.1545993E-4,-0.3107973,0.0724246,9.7958765,0,0,0,0,0,0,0,0,0,0,0,0,0,0,0,0,0,0,0,0,0
324,-1.6604716,-0.002849038,0.030869722,4.660532E-4,-8.6552737E-4,0.0018807243,-0.3143886,0.032920275,9.733627,0,0,0,0,0,0,0,0,0,0,0,0,0,0,0,0,0,0,0,0,0
325,-1.6604286,-0.0029107903,0.030836597,0.0015313176,0.0012650015,0.0018807243,-0.28565818,0.05805939,9.775525,0,0,0,0,0,0,0,0,0,0,0,0,0,0,0,0,0,0,0,0,0
326,-1.660422,-0.0029589648,0.030872088,0.0015313176,0.0012650015,-2.4980452E-4,-0.319177,0.05207389,9.783905,0,0,0,0,0,0,0,0,0,0,0,0,0,0,0,0,0,0,0,0,0
327,-1.6603097,-0.0030277946,0.030945234,4.660532E-4,1.9973709E-4,-0.0013150689,-0.32516253,0.035314474,9.793482,0,0,0,0,0,0,0,0,0,0,0,0,0,0,0,0,0,0,0,0,0
328,-1.6603603,-0.0030444802,0.030967975,-0.0015313176,-8.6552737E-4,-7.491472E-4,-0.3131915,0.037708677,9.758766,0,0,0,0,0,0,0,0,0,0,0,0,0,0,0,0,0,0,0,0,0
329,-1.6604217,-0.0030532384,0.030973412,-4.660532E-4,-0.0019307918,3.1611722E-4,-0.3060089,0.034117375,9.792285,0,0,0,0,0,0,0,0,0,0,0,0,0,0,0,0,0,0,0,0,0
330,-1.660513,-0.003047144,0.03099324,-4.660532E-4,1.9973709E-4,3.1611722E-4,-0.3131915,0.026934769,9.794679,0,0,0,0,0,0,0,0,0,0,0,0,0,0,0,0,0,0,0,0,0
331,-1.6604816,-0.0031023636,0.031008407,-4.660532E-4,0.0012650015,0.0013813816,-0.3107973,0.05686229,9.785102,0,0,0,0,0,0,0,0,0,0,0,0,0,0,0,0,0,0,0,0,0
332,-1.6605303,-0.003084495,0.03098181,-4.660532E-4,1.9973709E-4,-7.491472E-4,-0.34551322,0.050876785,9.762358,0,0,0,0,0,0,0,0,0,0,0,0,0,0,0,0,0,0,0,0,0
333,-1.6606238,-0.0030802912,0.03105123,5.9921126E-4,-8.6552737E-4,-0.0018144116,-0.33713353,0.02813187,9.781511,0,0,0,0,0,0,0,0,0,0,0,0,0,0,0,0,0,0,0,0,0
334,-1.6606276,-0.003115061,0.031056449,5.9921126E-4,0.002330266,-7.491472E-4,-0.307206,0.047285482,9.807847,0,0,0,0,0,0,0,0,0,0,0,0,0,0,0,0,0,0,0,0,0
335,-1.6605575,-0.0031859463,0.031052789,5.9921126E-4,1.9973709E-4,-0.0018144116,-0.3024176,0.065242,9.792285,0,0,0,0,0,0,0,0,0,0,0,0,0,0,0,0,0,0,0,0,0
336,-1.6606493,-0.003141792,0.031280037,-4.660532E-4,0.0012650015,-7.491472E-4,-0.33354223,0.038905777,9.776723,0,0,0,0,0,0,0,0,0,0,0,0,0,0,0,0,0,0,0,0,0
337,-1.6607177,-0.0031510622,0.031377185,5.9921126E-4,1.9973709E-4,-0.0018144116,-0.35389295,0.035314474,9.788693,0,0,0,0,0,0,0,0,0,0,0,0,0,0,0,0,0,0,0,0,0
338,-1.6607317,-0.003179871,0.031390425,-0.0015313176,-8.6552737E-4,0.0013813816,-0.3131915,0.044891283,9.7719345,0,0,0,0,0,0,0,0,0,0,0,0,0,0,0,0,0,0,0,0,0
339,-1.6607227,-0.003217716,0.031380232,-4.4954158E-4,0.0,-0.0014314491,-0.3024176,0.049679685,9.78989,0,0,0,0,0,0,0,0,0,0,0,0,0,0,0,0,0,0,0,0,0
340,-1.6607504,-0.0032378254,0.03139081,6.1572285E-4,0.0,0.0017643442,-0.3119944,0.04129998,9.774328,0,0,0,0,0,0,0,0,0,0,0,0,0,0,0,0,0,0,0,0,0
341,-1.6606791,-0.0034992294,0.031119686,-0.0015148061,0.002130529,-3.6618466E-4,-0.3107973,0.05207389,9.758766,0,0,0,0,0,0,0,0,0,0,0,0,0,0,0,0,0,0,0,0,0
342,-1.6607087,-0.0035159083,0.031165397,-0.0015148061,-0.0010652645,6.9907977E-4,-0.32755673,0.04249708,9.801862,0,0,0,0,0,0,0,0,0,0,0,0,0,0,0,0,0,0,0,0,0
343,-1.6606817,-0.0035596802,0.03119639,-0.0025800704,-0.0010652645,-3.6618466E-4,-0.319177,0.05566519,9.752781,0,0,0,0,0,0,0,0,0,0,0,0,0,0,0,0,0,0,0,0,0
344,-1.6606929,-0.0035826606,0.031219872,-4.4954158E-4,-0.0010652645,0.0028296087,-0.3167828,0.046088383,9.782708,0,0,0,0,0,0,0,0,0,0,0,0,0,0,0,0,0,0,0,0,0
345,-1.6609625,-0.0033986822,0.03119864,6.1572285E-4,0.0010652645,6.9907977E-4,-0.295235,0.038905777,9.773131,0,0,0,0,0,0,0,0,0,0,0,0,0,0,0,0,0,0,0,0,0
346,-1.6609392,-0.003439718,0.031227926,6.1572285E-4,-0.0010652645,0.0028296087,-0.319177,0.05327099,9.768343,0,0,0,0,0,0,0,0,0,0,0,0,0,0,0,0,0,0,0,0,0
347,-1.6608357,-0.003519095,0.031234438,6.1572285E-4,-0.0010652645,6.9907977E-4,-0.3084031,0.0724246,9.770737,0,0,0,0,0,0,0,0,0,0,0,0,0,0,0,0,0,0,0,0,0
348,-1.6608249,-0.0035503157,0.031235693,-0.0025800704,0.0,-3.6618466E-4,-0.3060089,0.049679685,9.774328,0,0,0,0,0,0,0,0,0,0,0,0,0,0,0,0,0,0,0,0,0
349,-1.6609428,-0.0035172426,0.031256262,-5.8269966E-4,2.9960563E-4,-5.494101E-4,-0.3155857,0.018555064,9.77792,0,0,0,0,0,0,0,0,0,0,0,0,0,0,0,0,0,0,0,0,0
350,-1.6608602,-0.0036071434,0.031153578,0.0015478292,2.9960563E-4,5.158543E-4,-0.3048118,0.048482586,9.783905,0,0,0,0,0,0,0,0,0,0,0,0,0,0,0,0,0,0,0,0,0
351,-1.6609365,-0.003599807,0.031241389,4.825648E-4,2.9960563E-4,-5.494101E-4,-0.34790742,0.03172317,9.783905,0,0,0,0,0,0,0,0,0,0,0,0,0,0,0,0,0,0,0,0,0
352,-1.6609808,-0.0036001767,0.031241281,0.0015478292,0.00136487,5.158543E-4,-0.3048118,0.035314474,9.755175,0,0,0,0,0,0,0,0,0,0,0,0,0,0,0,0,0,0,0,0,0
353,-1.6609471,-0.003639583,0.031237582,4.825648E-4,2.9960563E-4,-0.0016146746,-0.3036147,0.054468088,9.773131,0,0,0,0,0,0,0,0,0,0,0,0,0,0,0,0,0,0,0,0,0
354,-1.6608036,-0.0037591197,0.031148905,-5.8269966E-4,0.00136487,-5.494101E-4,-0.3107973,0.06404489,9.762358,0,0,0,0,0,0,0,0,0,0,0,0,0,0,0,0,0,0,0,0,0
355,-1.6608124,-0.0037756353,0.03114866,0.0015478292,-7.656588E-4,5.158543E-4,-0.3048118,0.044891283,9.7863,0,0,0,0,0,0,0,0,0,0,0,0,0,0,0,0,0,0,0,0,0
356,-1.6608666,-0.0037750434,0.031220073,4.825648E-4,-0.0018309233,5.158543E-4,-0.33833063,0.036511578,9.740809,0,0,0,0,0,0,0,0,0,0,0,0,0,0,0,0,0,0,0,0,0
357,-1.6608944,-0.0037864584,0.03128042,-5.8269966E-4,2.9960563E-4,5.158543E-4,-0.33473933,0.04249708,9.773131,0,0,0,0,0,0,0,0,0,0,0,0,0,0,0,0,0,0,0,0,0
358,-1.6608889,-0.0038097731,0.031289846,-0.0016479641,0.0024301345,5.158543E-4,-0.3107973,0.048482586,9.785102,0,0,0,0,0,0,0,0,0,0,0,0,0,0,0,0,0,0,0,0,0
359,-1.6610959,-0.0039051336,0.031399652,-5.8269966E-4,2.9960563E-4,-5.494101E-4,-0.34072483,0.049679685,9.773131,0,0,0,0,0,0,0,0,0,0,0,0,0,0,0,0,0,0,0,0,0
360,-1.661109,-0.0039161057,0.03142001,2.9960563E-4,0.002130529,-0.0015313176,-0.3179799,0.04369418,9.805453,0,0,0,0,0,0,0,0,0,0,0,0,0,0,0,0,0,0,0,0,0
361,-1.6610998,-0.003939368,0.03145418,-7.656588E-4,-0.0010652645,-4.660532E-4,-0.32396543,0.049679685,9.775525,0,0,0,0,0,0,0,0,0,0,0,0,0,0,0,0,0,0,0,0,0
362,-1.6611134,-0.0039476748,0.0314548,0.00136487,-0.002130529,-0.0015313176,-0.307206,0.04249708,9.753978,0,0,0,0,0,0,0,0,0,0,0,0,0,0,0,0,0,0,0,0,0
363,-1.6612236,-0.003580023,0.031239003,2.9960563E-4,0.0031957934,-4.660532E-4,-0.33833063,0.04369418,9.7479925,0,0,0,0,0,0,0,0,0,0,0,0,0,0,0,0,0,0,0,0,0
364,-1.6612518,-0.0035879016,0.031256586,2.9960563E-4,0.0,5.9921126E-4,-0.3143886,0.038905777,9.785102,0,0,0,0,0,0,0,0,0,0,0,0,0,0,0,0,0,0,0,0,0
365,-1.6611907,-0.0036400524,0.03126123,-7.656588E-4,0.0010652645,5.9921126E-4,-0.307206,0.060453594,9.752781,0,0,0,0,0,0,0,0,0,0,0,0,0,0,0,0,0,0,0,0,0
366,-1.6612542,-0.0036271755,0.03125889,2.9960563E-4,0.0,-4.660532E-4,-0.3048118,0.02932897,9.783905,0,0,0,0,0,0,0,0,0,0,0,0,0,0,0,0,0,0,0,0,0
367,-1.6611154,-0.0037250924,0.031346686,2.9960563E-4,0.0,-4.660532E-4,-0.34790742,0.08319851,9.755175,0,0,0,0,0,0,0,0,0,0,0,0,0,0,0,0,0,0,0,0,0
368,-1.6607312,-0.0036276886,0.03139584,2.9960563E-4,-0.0010652645,5.9921126E-4,-0.32995093,0.038905777,9.759963,0,0,0,0,0,0,0,0,0,0,0,0,0,0,0,0,0,0,0,0,0
369,-1.6604095,-0.0036350717,0.03142384,-7.656588E-4,0.0010652645,-4.660532E-4,-0.319177,0.038905777,9.728839,0,0,0,0,0,0,0,0,0,0,0,0,0,0,0,0,0,0,0,0,0
370,-1.6600126,-0.0036834062,0.031442538,-0.0028961876,-0.0010652645,-4.660532E-4,-0.3167828,0.05925649,9.7863,0,0,0,0,0,0,0,0,0,0,0,0,0,0,0,0,0,0,0,0,0
371,-1.65965,-0.0037189447,0.03148532,5.659217E-4,0.001165133,-0.0016311861,-0.32755673,0.05327099,9.750386,0,0,0,0,0,0,0,0,0,0,0,0,0,0,0,0,0,0,0,0,0
372,-1.6593645,-0.003549916,0.03137902,-0.0015646071,9.986854E-5,4.993427E-4,-0.3179799,0.05327099,9.770737,0,0,0,0,0,0,0,0,0,0,0,0,0,0,0,0,0,0,0,0,0
373,-1.6589916,-0.0036000377,0.031423546,5.659217E-4,9.986854E-5,4.993427E-4,-0.32875383,0.05925649,9.779117,0,0,0,0,0,0,0,0,0,0,0,0,0,0,0,0,0,0,0,0,0
374,-1.6586776,-0.0036202068,0.031428393,0.0016311861,-0.0020306604,4.993427E-4,-0.3084031,0.044891283,9.736021,0,0,0,0,0,0,0,0,0,0,0,0,0,0,0,0,0,0,0,0,0
375,-1.6584494,-0.0036005417,0.031451516,-4.993427E-4,9.986854E-5,0.0015646071,-0.3179799,0.025737667,9.755175,0,0,0,0,0,0,0,0,0,0,0,0,0,0,0,0,0,0,0,0,0
376,-1.6581371,-0.0036252718,0.031453554,-0.0015646071,0.001165133,0.0026298715,-0.3084031,0.047285482,9.770737,0,0,0,0,0,0,0,0,0,0,0,0,0,0,0,0,0,0,0,0,0
377,-1.6580677,-0.003578404,0.03150966,0.0016311861,9.986854E-5,-5.659217E-4,-0.32755673,0.04129998,9.733627,0,0,0,0,0,0,0,0,0,0,0,0,0,0,0,0,0,0,0,0,0
378,-1.657737,-0.0036159183,0.031496376,5.659217E-4,9.986854E-5,-5.659217E-4,-0.3012205,0.05327099,9.762358,0,0,0,0,0,0,0,0,0,0,0,0,0,0,0,0,0,0,0,0,0
379,-1.6574433,-0.0036376049,0.031490713,-4.993427E-4,9.986854E-5,4.993427E-4,-0.3060089,0.046088383,9.800665,0,0,0,0,0,0,0,0,0,0,0,0,0,0,0,0,0,0,0,0,0
380,-1.6570754,-0.0037008272,0.031499546,-4.993427E-4,9.986854E-5,4.993427E-4,-0.3119944,0.0664391,9.767146,0,0,0,0,0,0,0,0,0,0,0,0,0,0,0,0,0,0,0,0,0
381,-1.6568536,-0.0038025428,0.031688403,5.9921126E-4,0.0013315806,4.3276369E-4,-0.32516253,0.048482586,9.763555,0,0,0,0,0,0,0,0,0,0,0,0,0,0,0,0,0,0,0,0,0
382,-1.6566379,-0.003791472,0.031706087,-4.660532E-4,0.0013315806,4.3276369E-4,-0.3179799,0.03172317,9.758766,0,0,0,0,0,0,0,0,0,0,0,0,0,0,0,0,0,0,0,0,0
383,-1.6567547,-0.0037952305,0.031698063,-0.0015313176,0.0013315806,4.3276369E-4,-0.3060089,0.038905777,9.7719345,0,0,0,0,0,0,0,0,0,0,0,0,0,0,0,0,0,0,0,0,0
384,-1.6568319,-0.0038181776,0.031690575,0.0016644757,2.663161E-4,4.3276369E-4,-0.307206,0.048482586,9.8042555,0,0,0,0,0,0,0,0,0,0,0,0,0,0,0,0,0,0,0,0,0
385,-1.6570671,-0.003945632,0.031601734,5.9921126E-4,-7.9894834E-4,0.001498028,-0.3179799,0.05805939,9.768343,0,0,0,0,0,0,0,0,0,0,0,0,0,0,0,0,0,0,0,0,0
386,-1.6571438,-0.0039610257,0.031578813,-4.660532E-4,2.663161E-4,4.3276369E-4,-0.2976292,0.046088383,9.76954,0,0,0,0,0,0,0,0,0,0,0,0,0,0,0,0,0,0,0,0,0
387,-1.6571441,-0.0040157605,0.03156827,-4.660532E-4,-0.0018642128,4.3276369E-4,-0.3024176,0.065242,9.736021,0,0,0,0,0,0,0,0,0,0,0,0,0,0,0,0,0,0,0,0,0
388,-1.6572057,-0.0040417686,0.03160339,5.9921126E-4,2.663161E-4,4.3276369E-4,-0.32635963,0.05207389,9.78989,0,0,0,0,0,0,0,0,0,0,0,0,0,0,0,0,0,0,0,0,0
389,-1.6572716,-0.0040669786,0.031667773,5.9921126E-4,0.0034621095,-6.3250074E-4,-0.34192193,0.05207389,9.81503,0,0,0,0,0,0,0,0,0,0,0,0,0,0,0,0,0,0,0,0,0
390,-1.6575298,-0.0041751093,0.03160124,0.0016644757,-0.0018642128,4.3276369E-4,-0.32755673,0.050876785,9.734824,0,0,0,0,0,0,0,0,0,0,0,0,0,0,0,0,0,0,0,0,0
391,-1.6575387,-0.004212775,0.031546067,-4.660532E-4,-7.9894834E-4,-6.3250074E-4,-0.28206688,0.05925649,9.776723,0,0,0,0,0,0,0,0,0,0,0,0,0,0,0,0,0,0,0,0,0
392,-1.6576737,-0.004190857,0.03155728,-3.8296255E-4,0.0022303974,0.0012815131,-0.3143886,0.030526072,9.788693,0,0,0,0,0,0,0,0,0,0,0,0,0,0,0,0,0,0,0,0,0
393,-1.6577448,-0.00420362,0.031602636,-3.8296255E-4,-9.653959E-4,-8.490158E-4,-0.33114803,0.047285482,9.7863,0,0,0,0,0,0,0,0,0,0,0,0,0,0,0,0,0,0,0,0,0
394,-1.6574962,-0.0041897073,0.03162996,-3.8296255E-4,9.986854E-5,-0.0019142802,-0.3155857,0.06284779,9.779117,0,0,0,0,0,0,0,0,0,0,0,0,0,0,0,0,0,0,0,0,0
395,-1.6575214,-0.0042244187,0.031636734,0.0017475663,9.986854E-5,-8.490158E-4,-0.3131915,0.05805939,9.793482,0,0,0,0,0,0,0,0,0,0,0,0,0,0,0,0,0,0,0,0,0
396,-1.6576641,-0.0041949917,0.03160762,-3.8296255E-4,-9.653959E-4,-8.490158E-4,-0.295235,0.026934769,9.779117,0,0,0,0,0,0,0,0,0,0,0,0,0,0,0,0,0,0,0,0,0
397,-1.6577107,-0.004215106,0.031593844,6.823019E-4,-9.653959E-4,-0.0019142802,-0.3024176,0.050876785,9.77792,0,0,0,0,0,0,0,0,0,0,0,0,0,0,0,0,0,0,0,0,0
398,-1.6577216,-0.0042572967,0.031636633,6.823019E-4,0.0022303974,2.1624868E-4,-0.32875383,0.061650693,9.742006,0,0,0,0,0,0,0,0,0,0,0,0,0,0,0,0,0,0,0,0,0
399,-1.6578201,-0.0043618893,0.031738292,6.823019E-4,0.001165133,-8.490158E-4,-0.35269585,0.048482586,9.774328,0,0,0,0,0,0,0,0,0,0,0,0,0,0,0,0,0,0,0,0,0
400,-1.6578842,-0.0043714717,0.03175964,6.823019E-4,9.986854E-5,-8.490158E-4,-0.3203741,0.047285482,9.762358,0,0,0,0,0,0,0,0,0,0,0,0,0,0,0,0,0,0,0,0,0
401,-1.6579185,-0.0043951743,0.031778235,-0.001448227,0.001165133,-8.490158E-4,-0.3203741,0.054468088,9.797073,0,0,0,0,0,0,0,0,0,0,0,0,0,0,0,0,0,0,0,0,0
402,-1.6579233,-0.0044311793,0.0317749,0.0017475663,9.986854E-5,-8.490158E-4,-0.3084031,0.060453594,9.752781,0,0,0,0,0,0,0,0,0,0,0,0,0,0,0,0,0,0,0,0,0
403,-1.6582195,-0.0043515447,0.03195343,-5.659217E-4,0.0013813816,0.001498028,-0.3096002,0.037708677,9.775525,0,0,0,0,0,0,0,0,0,0,0,0,0,0,0,0,0,0,0,0,0
404,-1.658235,-0.0043830713,0.031983368,0.0015646071,3.1611722E-4,4.3276369E-4,-0.32755673,0.05805939,9.788693,0,0,0,0,0,0,0,0,0,0,0,0,0,0,0,0,0,0,0,0,0
405,-1.6583524,-0.004362724,0.0320185,4.993427E-4,-7.491472E-4,-6.3250074E-4,-0.32995093,0.032920275,9.775525,0,0,0,0,0,0,0,0,0,0,0,0,0,0,0,0,0,0,0,0,0
406,-1.6583843,-0.004381771,0.03201758,-5.659217E-4,-7.491472E-4,-6.3250074E-4,-0.3131915,0.05207389,9.792285,0,0,0,0,0,0,0,0,0,0,0,0,0,0,0,0,0,0,0,0,0
407,-1.6584034,-0.004405477,0.03200287,-0.0026964506,0.0013813816,4.3276369E-4,-0.3060089,0.054468088,9.779117,0,0,0,0,0,0,0,0,0,0,0,0,0,0,0,0,0,0,0,0,0
408,-1.6580542,-0.0043197735,0.03238609,4.993427E-4,-7.491472E-4,-0.0016977652,-0.34311903,0.038905777,9.783905,0,0,0,0,0,0,0,0,0,0,0,0,0,0,0,0,0,0,0,0,0
409,-1.6577014,-0.0043545053,0.03237379,-0.0016311861,3.1611722E-4,4.3276369E-4,-0.3107973,0.05925649,9.779117,0,0,0,0,0,0,0,0,0,0,0,0,0,0,0,0,0,0,0,0,0
410,-1.6574155,-0.0043615494,0.032410145,4.993427E-4,-7.491472E-4,0.001498028,-0.33473933,0.046088383,9.7863,0,0,0,0,0,0,0,0,0,0,0,0,0,0,0,0,0,0,0,0,0
411,-1.6571585,-0.0043512997,0.032369643,-5.659217E-4,0.0013813816,4.3276369E-4,-0.2976292,0.037708677,9.792285,0,0,0,0,0,0,0,0,0,0,0,0,0,0,0,0,0,0,0,0,0
412,-1.6565293,-0.004200537,0.032356504,0.0015646071,0.0013813816,-6.3250074E-4,-0.28924948,0.077213004,9.773131,0,0,0,0,0,0,0,0,0,0,0,0,0,0,0,0,0,0,0,0,0
413,-1.6562042,-0.0042402027,0.032362476,0.002796319,-6.9907977E-4,7.323693E-4,-0.319177,0.060453594,9.770737,0,0,0,0,0,0,0,0,0,0,0,0,0,0,0,0,0,0,0,0,0
414,-1.6563966,-0.0042031673,0.03236849,6.657903E-4,0.0014314491,-3.3289514E-4,-0.319177,0.023343466,9.768343,0,0,0,0,0,0,0,0,0,0,0,0,0,0,0,0,0,0,0,0,0
415,-1.656477,-0.0042204694,0.032357816,6.657903E-4,-0.0017643442,-0.0013981595,-0.3119944,0.049679685,9.797073,0,0,0,0,0,0,0,0,0,0,0,0,0,0,0,0,0,0,0,0,0
416,-1.6566554,-0.004191154,0.032395493,-3.9947417E-4,-6.9907977E-4,-3.3289514E-4,-0.33473933,0.026934769,9.7719345,0,0,0,0,0,0,0,0,0,0,0,0,0,0,0,0,0,0,0,0,0
417,-1.6566484,-0.004316913,0.032479778,6.657903E-4,0.0014314491,-3.3289514E-4,-0.33473933,0.060453594,9.7863,0,0,0,0,0,0,0,0,0,0,0,0,0,0,0,0,0,0,0,0,0
418,-1.6565644,-0.0044101514,0.032430407,-3.9947417E-4,0.0014314491,7.323693E-4,-0.2940379,0.08798691,9.794679,0,0,0,0,0,0,0,0,0,0,0,0,0,0,0,0,0,0,0,0,0
419,-1.6567152,-0.004391895,0.032485403,-3.9947417E-4,0.0014314491,7.323693E-4,-0.34311903,0.034117375,9.749189,0,0,0,0,0,0,0,0,0,0,0,0,0,0,0,0,0,0,0,0,0
420,-1.6568954,-0.0043541887,0.0325025,6.657903E-4,-0.0028296087,-0.0024634239,-0.32635963,0.024540568,9.785102,0,0,0,0,0,0,0,0,0,0,0,0,0,0,0,0,0,0,0,0,0
421,-1.6567783,-0.0043862197,0.032228492,6.657903E-4,-6.9907977E-4,0.0028628982,-0.2964321,0.08439561,9.749189,0,0,0,0,0,0,0,0,0,0,0,0,0,0,0,0,0,0,0,0,0
422,-1.6569471,-0.004353713,0.032250647,-3.9947417E-4,0.0024967135,-0.0013981595,-0.32516253,0.026934769,9.750386,0,0,0,0,0,0,0,0,0,0,0,0,0,0,0,0,0,0,0,0,0
423,-1.6570481,-0.004353548,0.032260943,-3.9947417E-4,3.6618466E-4,0.0017976337,-0.3203741,0.04249708,9.774328,0,0,0,0,0,0,0,0,0,0,0,0,0,0,0,0,0,0,0,0,0
424,-1.6570792,-0.0043854355,0.03224282,5.659217E-4,0.0014812502,-0.002396845,-0.3060089,0.05805939,9.7563715,0,0,0,0,0,0,0,0,0,0,0,0,0,0,0,0,0,0,0,0,0
425,-1.6572219,-0.004364982,0.032284405,0.0016311861,0.0014812502,-2.663161E-4,-0.33593643,0.032920275,9.783905,0,0,0,0,0,0,0,0,0,0,0,0,0,0,0,0,0,0,0,0,0
426,-1.6571505,-0.004428327,0.032213327,5.659217E-4,-6.492787E-4,-0.0013315806,-0.32276833,0.040102877,9.788693,0,0,0,0,0,0,0,0,0,0,0,0,0,0,0,0,0,0,0,0,0
427,-1.6571662,-0.0044658286,0.03219982,-4.993427E-4,4.1598576E-4,7.9894834E-4,-0.3084031,0.061650693,9.775525,0,0,0,0,0,0,0,0,0,0,0,0,0,0,0,0,0,0,0,0,0
428,-1.657283,-0.0044512018,0.032189265,5.659217E-4,0.0025465146,-2.663161E-4,-0.3096002,0.036511578,9.7719345,0,0,0,0,0,0,0,0,0,0,0,0,0,0,0,0,0,0,0,0,0
429,-1.6572999,-0.0044909017,0.03223859,-0.0015646071,4.1598576E-4,-2.663161E-4,-0.33833063,0.06284779,9.758766,0,0,0,0,0,0,0,0,0,0,0,0,0,0,0,0,0,0,0,0,0
430,-1.6574489,-0.0047305813,0.03248191,0.0016311861,4.1598576E-4,-2.663161E-4,-0.33833063,0.054468088,9.750386,0,0,0,0,0,0,0,0,0,0,0,0,0,0,0,0,0,0,0,0,0
431,-1.6575978,-0.004695925,0.03251424,5.659217E-4,-6.492787E-4,7.9894834E-4,-0.33354223,0.02932897,9.77792,0,0,0,0,0,0,0,0,0,0,0,0,0,0,0,0,0,0,0,0,0
432,-1.6575756,-0.004740522,0.03247604,5.659217E-4,-6.492787E-4,-0.002396845,-0.2988263,0.0676362,9.76116,0,0,0,0,0,0,0,0,0,0,0,0,0,0,0,0,0,0,0,0,0
433,-1.6576523,-0.0047349646,0.032444373,0.0016311861,4.1598576E-4,-0.0013315806,-0.3024176,0.04369418,9.7863,0,0,0,0,0,0,0,0,0,0,0,0,0,0,0,0,0,0,0,0,0
434,-1.6576276,-0.004783289,0.03244502,0.0016311861,-6.492787E-4,7.9894834E-4,-0.3179799,0.0700304,9.787497,0,0,0,0,0,0,0,0,0,0,0,0,0,0,0,0,0,0,0,0,0
435,-1.6577153,-0.0045382003,0.032505408,4.1598576E-4,2.330266E-4,-0.001298291,-0.33234513,0.037708677,9.792285,0,0,0,0,0,0,0,0,0,0,0,0,0,0,0,0,0,0,0,0,0
436,-1.6577535,-0.004556263,0.032485448,4.1598576E-4,-8.322378E-4,-2.330266E-4,-0.3084031,0.05327099,9.785102,0,0,0,0,0,0,0,0,0,0,0,0,0,0,0,0,0,0,0,0,0
437,-1.6577905,-0.0045715887,0.032436915,-0.0017145431,0.001298291,-2.330266E-4,-0.2940379,0.05207389,9.779117,0,0,0,0,0,0,0,0,0,0,0,0,0,0,0,0,0,0,0,0,0
438,-1.6579083,-0.004547641,0.032418028,-6.492787E-4,-8.322378E-4,-2.330266E-4,-0.307206,0.032920275,9.751583,0,0,0,0,0,0,0,0,0,0,0,0,0,0,0,0,0,0,0,0,0
439,-1.6579196,-0.0043417793,0.03232352,-6.492787E-4,0.001298291,-2.330266E-4,-0.32396543,0.054468088,9.765948,0,0,0,0,0,0,0,0,0,0,0,0,0,0,0,0,0,0,0,0,0
440,-1.6580182,-0.004339312,0.032400154,-0.0017145431,0.001298291,8.322378E-4,-0.35389295,0.04129998,9.783905,0,0,0,0,0,0,0,0,0,0,0,0,0,0,0,0,0,0,0,0,0
441,-1.658026,-0.0043785363,0.032438926,0.0014812502,0.001298291,8.322378E-4,-0.33593643,0.061650693,9.779117,0,0,0,0,0,0,0,0,0,0,0,0,0,0,0,0,0,0,0,0,0
442,-1.6580426,-0.0044073425,0.03241655,-0.0017145431,-8.322378E-4,0.0018975022,-0.3060089,0.05686229,9.767146,0,0,0,0,0,0,0,0,0,0,0,0,0,0,0,0,0,0,0,0,0
443,-1.6581429,-0.00437431,0.032379773,0.0014812502,0.001298291,8.322378E-4,-0.2988263,0.026934769,9.76954,0,0,0,0,0,0,0,0,0,0,0,0,0,0,0,0,0,0,0,0,0
444,-1.6580256,-0.0042826487,0.032451604,-6.492787E-4,2.330266E-4,8.322378E-4,-0.33713353,0.04249708,9.7958765,0,0,0,0,0,0,0,0,0,0,0,0,0,0,0,0,0,0,0,0,0
445,-1.6581451,-0.0042497898,0.03249425,5.326322E-4,3.3289514E-4,-6.492787E-4,-0.33713353,0.025737667,9.744401,0,0,0,0,0,0,0,0,0,0,0,0,0,0,0,0,0,0,0,0,0
446,-1.6582164,-0.0042392784,0.032515157,-5.326322E-4,-7.323693E-4,0.0014812502,-0.32875383,0.036511578,9.79827,0,0,0,0,0,0,0,0,0,0,0,0,0,0,0,0,0,0,0,0,0
447,-1.6581916,-0.0042756777,0.03251037,-5.326322E-4,3.3289514E-4,4.1598576E-4,-0.3155857,0.05925649,9.774328,0,0,0,0,0,0,0,0,0,0,0,0,0,0,0,0,0,0,0,0,0
448,-1.6582788,-0.0042112973,0.0325077,5.326322E-4,-0.0017976337,4.1598576E-4,-0.295235,0.04369418,9.773131,0,0,0,0,0,0,0,0,0,0,0,0,0,0,0,0,0,0,0,0,0
449,-1.6583176,-0.0042165145,0.032523293,-5.326322E-4,0.0024634239,0.0014812502,-0.32516253,0.04369418,9.764751,0,0,0,0,0,0,0,0,0,0,0,0,0,0,0,0,0,0,0,0,0
450,-1.6582868,-0.0042585973,0.032556888,-5.326322E-4,-7.323693E-4,4.1598576E-4,-0.33354223,0.061650693,9.7479925,0,0,0,0,0,0,0,0,0,0,0,0,0,0,0,0,0,0,0,0,0
451,-1.6583402,-0.0042551667,0.032571092,-5.326322E-4,3.3289514E-4,-0.0027798074,-0.32635963,0.040102877,9.80665,0,0,0,0,0,0,0,0,0,0,0,0,0,0,0,0,0,0,0,0,0
452,-1.6583185,-0.004288423,0.03256558,-5.326322E-4,3.3289514E-4,4.1598576E-4,-0.3167828,0.05805939,9.805453,0,0,0,0,0,0,0,0,0,0,0,0,0,0,0,0,0,0,0,0,0
453,-1.6583967,-0.004230867,0.032463998,5.326322E-4,-7.323693E-4,4.1598576E-4,-0.3167828,0.047285482,9.799467,0,0,0,0,0,0,0,0,0,0,0,0,0,0,0,0,0,0,0,0,0
454,-1.6584226,-0.0042380705,0.032445632,5.326322E-4,-7.323693E-4,0.0014812502,-0.3084031,0.044891283,9.773131,0,0,0,0,0,0,0,0,0,0,0,0,0,0,0,0,0,0,0,0,0
455,-1.6583809,-0.0042819614,0.03245267,-5.326322E-4,-7.323693E-4,-0.0017145431,-0.3203741,0.06284779,9.764751,0,0,0,0,0,0,0,0,0,0,0,0,0,0,0,0,0,0,0,0,0
456,-1.6583745,-0.004305095,0.032435894,0.0015478292,-5.326322E-4,-0.0015148061,-0.3096002,0.05327099,9.78989,0,0,0,0,0,0,0,0,0,0,0,0,0,0,0,0,0,0,0,0,0
457,-1.6581922,-0.0040998533,0.032810465,4.825648E-4,-0.0015978967,6.1572285E-4,-0.32875383,0.050876785,9.77792,0,0,0,0,0,0,0,0,0,0,0,0,0,0,0,0,0,0,0,0,0
458,-1.6578776,-0.0041048964,0.03278847,-5.8269966E-4,-5.326322E-4,-4.4954158E-4,-0.3096002,0.04249708,9.759963,0,0,0,0,0,0,0,0,0,0,0,0,0,0,0,0,0,0,0,0,0
459,-1.657549,-0.0041219117,0.032790214,-5.8269966E-4,-5.326322E-4,6.1572285E-4,-0.3215712,0.048482586,9.77792,0,0,0,0,0,0,0,0,0,0,0,0,0,0,0,0,0,0,0,0,0
460,-1.6571809,-0.004160779,0.032768317,4.825648E-4,0.0026631611,0.0016809873,-0.3096002,0.05925649,9.764751,0,0,0,0,0,0,0,0,0,0,0,0,0,0,0,0,0,0,0,0,0
461,-1.6567887,-0.0041096457,0.03299122,-5.8269966E-4,0.0015978967,-4.4954158E-4,-0.32875383,0.054468088,9.841366,0,0,0,0,0,0,0,0,0,0,0,0,0,0,0,0,0,0,0,0,0
462,-1.6565089,-0.0041093216,0.032936655,-0.0016479641,0.0026631611,-4.4954158E-4,-0.2964321,0.040102877,9.792285,0,0,0,0,0,0,0,0,0,0,0,0,0,0,0,0,0,0,0,0,0
463,-1.656159,-0.0041530863,0.032952145,4.825648E-4,-5.326322E-4,6.1572285E-4,-0.32995093,0.061650693,9.783905,0,0,0,0,0,0,0,0,0,0,0,0,0,0,0,0,0,0,0,0,0
464,-1.6558509,-0.00417661,0.032946523,4.825648E-4,5.326322E-4,6.1572285E-4,-0.319177,0.05207389,9.765948,0,0,0,0,0,0,0,0,0,0,0,0,0,0,0,0,0,0,0,0,0
465,-1.6555688,-0.004192354,0.032985434,4.825648E-4,0.0015978967,0.0027462516,-0.34072483,0.048482586,9.76116,0,0,0,0,0,0,0,0,0,0,0,0,0,0,0,0,0,0,0,0,0
466,-1.6554977,-0.004420968,0.032920487,-0.0016479641,0.0015978967,-4.4954158E-4,-0.32516253,0.049679685,9.764751,0,0,0,0,0,0,0,0,0,0,0,0,0,0,0,0,0,0,0,0,0
467,-1.6551616,-0.0044611525,0.032925133,6.657903E-4,-0.0030959249,6.3250074E-4,-0.32396543,0.06284779,9.768343,0,0,0,0,0,0,0,0,0,0,0,0,0,0,0,0,0,0,0,0,0
468,-1.654973,-0.0044295704,0.032959998,6.657903E-4,0.001165133,-0.001498028,-0.33833063,0.02813187,9.755175,0,0,0,0,0,0,0,0,0,0,0,0,0,0,0,0,0,0,0,0,0
469,-1.6546872,-0.0044524265,0.033015262,0.0017310547,-0.0020306604,-4.3276369E-4,-0.34910452,0.054468088,9.768343,0,0,0,0,0,0,0,0,0,0,0,0,0,0,0,0,0,0,0,0,0
470,-1.6545461,-0.0042555504,0.03302766,-0.0014647386,9.986854E-5,6.3250074E-4,-0.32276833,0.040102877,9.77792,0,0,0,0,0,0,0,0,0,0,0,0,0,0,0,0,0,0,0,0,0
471,-1.6543847,-0.004215888,0.03300011,-0.0014647386,9.986854E-5,-0.0025632926,-0.3084031,0.022146367,9.740809,0,0,0,0,0,0,0,0,0,0,0,0,0,0,0,0,0,0,0,0,0
472,-1.654162,-0.00421345,0.033016358,6.657903E-4,9.986854E-5,-0.0025632926,-0.33114803,0.040102877,9.78989,0,0,0,0,0,0,0,0,0,0,0,0,0,0,0,0,0,0,0,0,0
473,-1.6539048,-0.004233396,0.03306638,6.657903E-4,-9.653959E-4,-4.3276369E-4,-0.34671032,0.050876785,9.757569,0,0,0,0,0,0,0,0,0,0,0,0,0,0,0,0,0,0,0,0,0
474,-1.6536278,-0.004262537,0.03306754,-3.9947417E-4,-9.653959E-4,6.3250074E-4,-0.32396543,0.05566519,9.776723,0,0,0,0,0,0,0,0,0,0,0,0,0,0,0,0,0,0,0,0,0
475,-1.6533002,-0.004094318,0.03300423,-3.9947417E-4,-9.653959E-4,0.0016977652,-0.28565818,0.054468088,9.768343,0,0,0,0,0,0,0,0,0,0,0,0,0,0,0,0,0,0,0,0,0
476,-1.653066,-0.0041090646,0.032986753,-0.0014647386,0.0022303974,6.3250074E-4,-0.3143886,0.047285482,9.781511,0,0,0,0,0,0,0,0,0,0,0,0,0,0,0,0,0,0,0,0,0
477,-1.6529678,-0.0040550553,0.03296069,-6.657903E-4,2.9960563E-4,-4.4954158E-4,-0.3096002,0.013766659,9.768343,0,0,0,0,0,0,0,0,0,0,0,0,0,0,0,0,0,0,0,0,0
478,-1.6526097,-0.0041390783,0.032963637,-0.0017310547,-7.656588E-4,-0.0015148061,-0.32396543,0.08080431,9.781511,0,0,0,0,0,0,0,0,0,0,0,0,0,0,0,0,0,0,0,0,0
479,-1.6521319,-0.0042305416,0.032885466,3.9947417E-4,-7.656588E-4,-0.0015148061,-0.33354223,0.06284779,9.792285,0,0,0,0,0,0,0,0,0,0,0,0,0,0,0,0,0,0,0,0,0
480,-1.6520443,-0.0041814544,0.032903135,-0.002796319,2.9960563E-4,-4.4954158E-4,-0.32995093,0.017357962,9.767146,0,0,0,0,0,0,0,0,0,0,0,0,0,0,0,0,0,0,0,0,0
481,-1.65186,-0.00418933,0.032807905,-6.657903E-4,0.0024301345,-0.0015148061,-0.27608138,0.044891283,9.807847,0,0,0,0,0,0,0,0,0,0,0,0,0,0,0,0,0,0,0,0,0
482,-1.6515841,-0.004248717,0.032760337,-6.657903E-4,-7.656588E-4,6.1572285E-4,-0.2976292,0.0700304,9.77792,0,0,0,0,0,0,0,0,0,0,0,0,0,0,0,0,0,0,0,0,0
483,-1.6514225,-0.004255614,0.032770712,3.9947417E-4,0.00136487,-0.0025800704,-0.32516253,0.044891283,9.767146,0,0,0,0,0,0,0,0,0,0,0,0,0,0,0,0,0,0,0,0,0
484,-1.651104,-0.0043667075,0.032876242,3.9947417E-4,2.9960563E-4,6.1572285E-4,-0.35269585,0.0712275,9.775525,0,0,0,0,0,0,0,0,0,0,0,0,0,0,0,0,0,0,0,0,0
485,-1.6509498,-0.00437337,0.032899108,-6.657903E-4,2.9960563E-4,-4.4954158E-4,-0.33354223,0.046088383,9.800665,0,0,0,0,0,0,0,0,0,0,0,0,0,0,0,0,0,0,0,0,0
486,-1.6508005,-0.0043752096,0.032866687,3.9947417E-4,-7.656588E-4,6.1572285E-4,-0.3060089,0.04369418,9.7803135,0,0,0,0,0,0,0,0,0,0,0,0,0,0,0,0,0,0,0,0,0
487,-1.6505533,-0.004423448,0.032761265,0.0014647386,0.00136487,6.1572285E-4,-0.27009588,0.0664391,9.785102,0,0,0,0,0,0,0,0,0,0,0,0,0,0,0,0,0,0,0,0,0
488,-1.650672,-0.0044898316,0.033039402,-4.1625206E-4,0.0012650015,5.326322E-4,-0.3060089,0.030526072,9.745598,0,0,0,0,0,0,0,0,0,0,0,0,0,0,0,0,0,0,0,0,0
489,-1.6505287,-0.004494143,0.03307694,-4.1625206E-4,0.002330266,-5.326322E-4,-0.34192193,0.046088383,9.788693,0,0,0,0,0,0,0,0,0,0,0,0,0,0,0,0,0,0,0,0,0
490,-1.6503274,-0.004527765,0.03309451,-4.1625206E-4,1.9973709E-4,-5.326322E-4,-0.33234513,0.060453594,9.783905,0,0,0,0,0,0,0,0,0,0,0,0,0,0,0,0,0,0,0,0,0
491,-1.6501744,-0.004534036,0.033049528,-4.1625206E-4,0.0012650015,0.0015978967,-0.3012205,0.047285482,9.762358,0,0,0,0,0,0,0,0,0,0,0,0,0,0,0,0,0,0,0,0,0
492,-1.650017,-0.004544945,0.033019297,0.0017142767,-8.6552737E-4,5.326322E-4,-0.3084031,0.049679685,9.775525,0,0,0,0,0,0,0,0,0,0,0,0,0,0,0,0,0,0,0,0,0
493,-1.6494517,-0.004518581,0.033258166,-0.0014815165,1.9973709E-4,-0.0015978967,-0.28924948,0.06404489,9.782708,0,0,0,0,0,0,0,0,0,0,0,0,0,0,0,0,0,0,0,0,0
494,-1.6492994,-0.0045370166,0.03325973,-4.1625206E-4,1.9973709E-4,-5.326322E-4,-0.32635963,0.05327099,9.7863,0,0,0,0,0,0,0,0,0,0,0,0,0,0,0,0,0,0,0,0,0
495,-1.649237,-0.004513579,0.033293713,6.4901233E-4,1.9973709E-4,-5.326322E-4,-0.34192193,0.032920275,9.776723,0,0,0,0,0,0,0,0,0,0,0,0,0,0,0,0,0,0,0,0,0
496,-1.649162,-0.004497824,0.0333307,6.4901233E-4,1.9973709E-4,-0.0026631611,-0.34431612,0.036511578,9.793482,0,0,0,0,0,0,0,0,0,0,0,0,0,0,0,0,0,0,0,0,0
497,-1.649364,-0.0046114894,0.033472598,-4.1625206E-4,1.9973709E-4,0.0015978967,-0.3143886,0.05207389,9.764751,0,0,0,0,0,0,0,0,0,0,0,0,0,0,0,0,0,0,0,0,0
498,-1.649258,-0.0046036197,0.03344299,-4.1625206E-4,-8.6552737E-4,-0.0015978967,-0.3155857,0.035314474,9.768343,0,0,0,0,0,0,0,0,0,0,0,0,0,0,0,0,0,0,0,0,0
499,-1.6491355,-0.004605768,0.03341941,-3.9947417E-4,-1.9973709E-4,-5.326322E-4,-0.3155857,0.046088383,9.77792,0,0,0,0,0,0,0,0,0,0,0,0,0,0,0,0,0,0,0,0,0
500,-1.6490313,-0.004600498,0.033405848,6.657903E-4,8.6552737E-4,-0.0015978967,-0.3203741,0.04249708,9.781511,0,0,0,0,0,0,0,0,0,0,0,0,0,0,0,0,0,0,0,0,0
501,-1.6488489,-0.0046343408,0.033367414,-3.9947417E-4,-0.0012650015,-5.326322E-4,-0.3084031,0.061650693,9.792285,0,0,0,0,0,0,0,0,0,0,0,0,0,0,0,0,0,0,0,0,0
502,-1.6487108,-0.0044215545,0.03347063,6.657903E-4,-1.9973709E-4,0.0026631611,-0.3203741,0.036511578,9.757569,0,0,0,0,0,0,0,0,0,0,0,0,0,0,0,0,0,0,0,0,0
503,-1.6485537,-0.004448863,0.033424187,-0.0014647386,0.0019307918,0.0015978967,-0.3060089,0.05686229,9.821015,0,0,0,0,0,0,0,0,0,0,0,0,0,0,0,0,0,0,0,0,0
504,-1.6483499,-0.004501439,0.03338511,0.0017310547,-0.0012650015,0.0015978967,-0.3060089,0.0688333,9.720459,0,0,0,0,0,0,0,0,0,0,0,0,0,0,0,0,0,0,0,0,0
505,-1.6482548,-0.004503235,0.0333949,-0.002530003,-0.0012650015,-0.0015978967,-0.33114803,0.044891283,9.7719345,0,0,0,0,0,0,0,0,0,0,0,0,0,0,0,0,0,0,0,0,0
506,-1.6481994,-0.0046067066,0.033476386,-3.9947417E-4,0.0019307918,5.326322E-4,-0.3119944,0.050876785,9.810242,0,0,0,0,0,0,0,0,0,0,0,0,0,0,0,0,0,0,0,0,0
507,-1.6480631,-0.004628826,0.033486687,-3.9947417E-4,-1.9973709E-4,-5.326322E-4,-0.33114803,0.05566519,9.738416,0,0,0,0,0,0,0,0,0,0,0,0,0,0,0,0,0,0,0,0,0
508,-1.6480092,-0.004608576,0.033473223,-3.9947417E-4,-1.9973709E-4,-0.0015978967,-0.3203741,0.035314474,9.759963,0,0,0,0,0,0,0,0,0,0,0,0,0,0,0,0,0,0,0,0,0
509,-1.6479723,-0.004576353,0.033402417,0.001498028,-0.0010487528,-6.492787E-4,-0.2928408,0.02932897,9.7803135,0,0,0,0,0,0,0,0,0,0,0,0,0,0,0,0,0,0,0,0,0
510,-1.647875,-0.0045812414,0.03340727,4.3276369E-4,0.0032123048,-0.0017145431,-0.32995093,0.047285482,9.803059,0,0,0,0,0,0,0,0,0,0,0,0,0,0,0,0,0,0,0,0,0
511,-1.6478463,-0.004637694,0.033553604,4.3276369E-4,-0.0010487528,4.1598576E-4,-0.32875383,0.04369418,9.774328,0,0,0,0,0,0,0,0,0,0,0,0,0,0,0,0,0,0,0,0,0
512,-1.647704,-0.004668106,0.03359638,0.001498028,-0.0010487528,-0.0017145431,-0.35030162,0.060453594,9.810242,0,0,0,0,0,0,0,0,0,0,0,0,0,0,0,0,0,0,0,0,0
513,-1.6476094,-0.0046690255,0.033548106,4.3276369E-4,1.6511598E-5,4.1598576E-4,-0.3048118,0.046088383,9.7719345,0,0,0,0,0,0,0,0,0,0,0,0,0,0,0,0,0,0,0,0,0
514,-1.647548,-0.004655241,0.033518005,-6.3250074E-4,-0.0021140173,0.0014812502,-0.3131915,0.038905777,9.770737,0,0,0,0,0,0,0,0,0,0,0,0,0,0,0,0,0,0,0,0,0
515,-1.6471717,-0.004740002,0.03355031,-6.3250074E-4,0.001081776,-6.492787E-4,-0.34192193,0.06284779,9.773131,0,0,0,0,0,0,0,0,0,0,0,0,0,0,0,0,0,0,0,0,0
516,-1.6470469,-0.0047660335,0.03358889,4.3276369E-4,-0.0010487528,4.1598576E-4,-0.34790742,0.05925649,9.801862,0,0,0,0,0,0,0,0,0,0,0,0,0,0,0,0,0,0,0,0,0
517,-1.6468986,-0.0048014466,0.033578545,-6.3250074E-4,-0.0021140173,0.0025465146,-0.32396543,0.06404489,9.792285,0,0,0,0,0,0,0,0,0,0,0,0,0,0,0,0,0,0,0,0,0
518,-1.646851,-0.004784898,0.033542003,4.3276369E-4,1.6511598E-5,-6.492787E-4,-0.3107973,0.038905777,9.785102,0,0,0,0,0,0,0,0,0,0,0,0,0,0,0,0,0,0,0,0,0
519,-1.6467525,-0.004793636,0.033487134,-6.3250074E-4,-0.0010487528,4.1598576E-4,-0.3000234,0.050876785,9.738416,0,0,0,0,0,0,0,0,0,0,0,0,0,0,0,0,0,0,0,0,0
520,-1.6468071,-0.0045387545,0.03333855,5.491438E-4,4.660532E-4,-0.0015480955,-0.32276833,0.030526072,9.7863,0,0,0,0,0,0,0,0,0,0,0,0,0,0,0,0,0,0,0,0,0
521,-1.6467311,-0.0045469888,0.03336774,-0.001581385,0.0015313176,5.824333E-4,-0.34072483,0.048482586,9.787497,0,0,0,0,0,0,0,0,0,0,0,0,0,0,0,0,0,0,0,0,0
522,-1.6465989,-0.0045796703,0.0333287,5.491438E-4,-5.9921126E-4,5.824333E-4,-0.307206,0.060453594,9.775525,0,0,0,0,0,0,0,0,0,0,0,0,0,0,0,0,0,0,0,0,0
523,-1.6464783,-0.004606615,0.033282112,-5.1612064E-4,-5.9921126E-4,5.824333E-4,-0.3036147,0.05805939,9.791088,0,0,0,0,0,0,0,0,0,0,0,0,0,0,0,0,0,0,0,0,0
524,-1.6467221,-0.004641635,0.033354193,-5.1612064E-4,0.0015313176,-4.828311E-4,-0.33114803,0.023343466,9.773131,0,0,0,0,0,0,0,0,0,0,0,0,0,0,0,0,0,0,0,0,0
525,-1.6466298,-0.004652635,0.033321515,5.491438E-4,4.660532E-4,5.824333E-4,-0.3107973,0.050876785,9.794679,0,0,0,0,0,0,0,0,0,0,0,0,0,0,0,0,0,0,0,0,0
526,-1.6465639,-0.004649155,0.033262867,5.491438E-4,-5.9921126E-4,-4.828311E-4,-0.2964321,0.04369418,9.751583,0,0,0,0,0,0,0,0,0,0,0,0,0,0,0,0,0,0,0,0,0
527,-1.6466093,-0.0045917328,0.033231985,5.491438E-4,4.660532E-4,-0.0015480955,-0.3096002,0.017357962,9.757569,0,0,0,0,0,0,0,0,0,0,0,0,0,0,0,0,0,0,0,0,0
528,-1.6468788,-0.004606823,0.033230223,-5.1612064E-4,0.002596582,5.824333E-4,-0.32276833,0.05207389,9.734824,0,0,0,0,0,0,0,0,0,0,0,0,0,0,0,0,0,0,0,0,0
529,-1.647134,-0.004604781,0.033197843,5.491438E-4,4.660532E-4,0.0016476978,-0.34790742,0.076015905,9.776723,0,0,0,0,0,0,0,0,0,0,0,0,0,0,0,0,0,0,0,0,0
530,-1.6474179,-0.00460911,0.03322395,0.0026796726,0.0015313176,5.824333E-4,-0.33833063,0.047285482,9.801862,0,0,0,0,0,0,0,0,0,0,0,0,0,0,0,0,0,0,0,0,0
531,-1.6477659,-0.0045719873,0.03318021,-5.326322E-4,-0.0011318434,7.656588E-4,-0.3036147,0.026934769,9.779117,0,0,0,0,0,0,0,0,0,0,0,0,0,0,0,0,0,0,0,0,0
532,-1.6479881,-0.004594339,0.033122674,-5.326322E-4,-6.657903E-5,-2.9960563E-4,-0.2964321,0.05566519,9.779117,0,0,0,0,0,0,0,0,0,0,0,0,0,0,0,0,0,0,0,0,0
533,-1.648485,-0.0044041607,0.032983627,5.326322E-4,-0.0011318434,7.656588E-4,-0.32995093,0.050876785,9.7958765,0,0,0,0,0,0,0,0,0,0,0,0,0,0,0,0,0,0,0,0,0
534,-1.648644,-0.0044591683,0.032986037,-5.326322E-4,-6.657903E-5,0.0018309233,-0.32396543,0.0700304,9.782708,0,0,0,0,0,0,0,0,0,0,0,0,0,0,0,0,0,0,0,0,0
535,-1.6489406,-0.0044398108,0.03296007,5.326322E-4,9.986854E-4,0.0018309233,-0.3096002,0.034117375,9.767146,0,0,0,0,0,0,0,0,0,0,0,0,0,0,0,0,0,0,0,0,0
536,-1.6492401,-0.004415846,0.032928795,-5.326322E-4,-0.002197108,-0.00136487,-0.307206,0.03172317,9.781511,0,0,0,0,0,0,0,0,0,0,0,0,0,0,0,0,0,0,0,0,0
537,-1.6493224,-0.0045023067,0.03294167,5.326322E-4,-0.0011318434,-0.0024301345,-0.32875383,0.08559271,9.788693,0,0,0,0,0,0,0,0,0,0,0,0,0,0,0,0,0,0,0,0,0
538,-1.6495112,-0.0043045385,0.03293916,5.326322E-4,-0.0011318434,7.656588E-4,-0.32635963,0.050876785,9.812635,0,0,0,0,0,0,0,0,0,0,0,0,0,0,0,0,0,0,0,0,0
539,-1.649585,-0.004376069,0.03290517,-5.326322E-4,-0.0011318434,7.656588E-4,-0.3060089,0.077213004,9.792285,0,0,0,0,0,0,0,0,0,0,0,0,0,0,0,0,0,0,0,0,0
540,-1.6498486,-0.004348603,0.03287868,-5.326322E-4,-0.0011318434,7.656588E-4,-0.3084031,0.02932897,9.762358,0,0,0,0,0,0,0,0,0,0,0,0,0,0,0,0,0,0,0,0,0
541,-1.6500123,-0.004368042,0.032826953,-1.9973709E-4,5.326322E-4,0.0024799355,-0.2964321,0.05207389,9.782708,0,0,0,0,0,0,0,0,0,0,0,0,0,0,0,0,0,0,0,0,0
542,-1.6502305,-0.0044952473,0.032576956,8.6552737E-4,5.326322E-4,-7.158577E-4,-0.3012205,0.048482586,9.762358,0,0,0,0,0,0,0,0,0,0,0,0,0,0,0,0,0,0,0,0,0
543,-1.6502982,-0.004563528,0.03261134,8.6552737E-4,0.0026631611,0.0014146712,-0.33473933,0.077213004,9.7563715,0,0,0,0,0,0,0,0,0,0,0,0,0,0,0,0,0,0,0,0,0
544,-1.650482,-0.0045690755,0.03262747,8.6552737E-4,-5.326322E-4,-7.158577E-4,-0.32635963,0.047285482,9.762358,0,0,0,0,0,0,0,0,0,0,0,0,0,0,0,0,0,0,0,0,0
545,-1.6505715,-0.0046157367,0.03258003,0.0019307918,5.326322E-4,3.4940674E-4,-0.2964321,0.0676362,9.794679,0,0,0,0,0,0,0,0,0,0,0,0,0,0,0,0,0,0,0,0,0
546,-1.6505815,-0.004762759,0.03278277,8.6552737E-4,0.0015978967,-7.158577E-4,-0.3143886,0.0664391,9.764751,0,0,0,0,0,0,0,0,0,0,0,0,0,0,0,0,0,0,0,0,0
547,-1.6508176,-0.0047372966,0.03282427,-1.9973709E-4,-5.326322E-4,3.4940674E-4,-0.34072483,0.034117375,9.770737,0,0,0,0,0,0,0,0,0,0,0,0,0,0,0,0,0,0,0,0,0
548,-1.6509126,-0.0047783554,0.03282277,-1.9973709E-4,0.0015978967,-7.158577E-4,-0.3203741,0.0664391,9.779117,0,0,0,0,0,0,0,0,0,0,0,0,0,0,0,0,0,0,0,0,0
549,-1.6510088,-0.004816213,0.03281183,-0.0012650015,-5.326322E-4,-7.158577E-4,-0.3155857,0.065242,9.774328,0,0,0,0,0,0,0,0,0,0,0,0,0,0,0,0,0,0,0,0,0
550,-1.6511958,-0.0048044673,0.03278484,-1.9973709E-4,5.326322E-4,3.4940674E-4,-0.307206,0.04129998,9.76116,0,0,0,0,0,0,0,0,0,0,0,0,0,0,0,0,0,0,0,0,0
551,-1.6513382,-0.0048766606,0.032855626,8.6552737E-4,-5.326322E-4,-0.0017811222,-0.3203741,0.02813187,9.764751,0,0,0,0,0,0,0,0,0,0,0,0,0,0,0,0,0,0,0,0,0
552,-1.6514593,-0.004897989,0.03287414,-0.0025632926,3.4940674E-4,4.660532E-4,-0.32995093,0.05805939,9.763555,0,0,0,0,0,0,0,0,0,0,0,0,0,0,0,0,0,0,0,0,0
553,-1.6516039,-0.004904062,0.03287433,6.3250074E-4,3.4940674E-4,4.660532E-4,-0.3215712,0.050876785,9.775525,0,0,0,0,0,0,0,0,0,0,0,0,0,0,0,0,0,0,0,0,0
554,-1.6517017,-0.0049322145,0.032870505,-0.001498028,3.4940674E-4,-0.0016644757,-0.319177,0.061650693,9.762358,0,0,0,0,0,0,0,0,0,0,0,0,0,0,0,0,0,0,0,0,0
555,-1.651914,-0.0050127874,0.03288333,6.3250074E-4,3.4940674E-4,4.660532E-4,-0.3060089,0.046088383,9.7958765,0,0,0,0,0,0,0,0,0,0,0,0,0,0,0,0,0,0,0,0,0
556,-1.6521678,-0.0049726004,0.032877035,0.0016977652,0.0014146712,-5.9921126E-4,-0.3179799,0.02932897,9.759963,0,0,0,0,0,0,0,0,0,0,0,0,0,0,0,0,0,0,0,0,0
557,-1.6522838,-0.004994404,0.03280412,-0.001498028,3.4940674E-4,-5.9921126E-4,-0.28565818,0.05925649,9.76954,0,0,0,0,0,0,0,0,0,0,0,0,0,0,0,0,0,0,0,0,0
558,-1.6524583,-0.0049937214,0.032833125,6.3250074E-4,3.4940674E-4,-5.9921126E-4,-0.33473933,0.048482586,9.768343,0,0,0,0,0,0,0,0,0,0,0,0,0,0,0,0,0,0,0,0,0
559,-1.6526172,-0.0050004767,0.032876756,-0.0025632926,-7.158577E-4,4.660532E-4,-0.34192193,0.05207389,9.76116,0,0,0,0,0,0,0,0,0,0,0,0,0,0,0,0,0,0,0,0,0
560,-1.6526982,-0.0050157523,0.032617994,6.3250074E-4,3.4940674E-4,4.660532E-4,-0.3096002,0.08319851,9.773131,0,0,0,0,0,0,0,0,0,0,0,0,0,0,0,0,0,0,0,0,0
561,-1.6528845,-0.0050000357,0.03259993,6.3250074E-4,3.4940674E-4,4.660532E-4,-0.3096002,0.04129998,9.758766,0,0,0,0,0,0,0,0,0,0,0,0,0,0,0,0,0,0,0,0,0
562,-1.6530131,-0.0050092144,0.03254575,0.0027630297,3.4940674E-4,4.660532E-4,-0.2916437,0.05327099,9.753978,0,0,0,0,0,0,0,0,0,0,0,0,0,0,0,0,0,0,0,0,0
563,-1.6531646,-0.005015163,0.032606512,-0.0016146746,0.0012482236,3.4940674E-4,-0.34910452,0.05207389,9.80665,0,0,0,0,0,0,0,0,0,0,0,0,0,0,0,0,0,0,0,0,0
564,-1.6533301,-0.005102903,0.032820135,5.158543E-4,0.0012482236,3.4940674E-4,-0.34311903,0.05805939,9.774328,0,0,0,0,0,0,0,0,0,0,0,0,0,0,0,0,0,0,0,0,0
565,-1.6534699,-0.0051024724,0.032792278,-0.0016146746,1.8295916E-4,3.4940674E-4,-0.307206,0.049679685,9.7719345,0,0,0,0,0,0,0,0,0,0,0,0,0,0,0,0,0,0,0,0,0
566,-1.653641,-0.005087141,0.03279274,-5.494101E-4,-0.0019475697,-7.158577E-4,-0.3215712,0.04249708,9.7958765,0,0,0,0,0,0,0,0,0,0,0,0,0,0,0,0,0,0,0,0,0
567,-1.653778,-0.0050868234,0.032783743,-0.0016146746,0.0012482236,3.4940674E-4,-0.3167828,0.049679685,9.791088,0,0,0,0,0,0,0,0,0,0,0,0,0,0,0,0,0,0,0,0,0
568,-1.6538599,-0.005113646,0.03278109,5.158543E-4,0.0012482236,-7.158577E-4,-0.319177,0.06284779,9.7719345,0,0,0,0,0,0,0,0,0,0,0,0,0,0,0,0,0,0,0,0,0
569,-1.6542262,-0.0051599196,0.032921523,-5.494101E-4,-8.8230526E-4,3.4940674E-4,-0.3096002,0.036511578,9.781511,0,0,0,0,0,0,0,0,0,0,0,0,0,0,0,0,0,0,0,0,0
570,-1.6543126,-0.005175273,0.032885604,5.158543E-4,1.8295916E-4,3.4940674E-4,-0.3048118,0.05805939,9.78989,0,0,0,0,0,0,0,0,0,0,0,0,0,0,0,0,0,0,0,0,0
571,-1.654333,-0.0052222256,0.032843594,5.158543E-4,0.0012482236,-7.158577E-4,-0.3012205,0.073621705,9.781511,0,0,0,0,0,0,0,0,0,0,0,0,0,0,0,0,0,0,0,0,0
572,-1.6545734,-0.0051607024,0.032843232,-5.494101E-4,0.0012482236,3.4940674E-4,-0.3203741,0.020949265,9.7563715,0,0,0,0,0,0,0,0,0,0,0,0,0,0,0,0,0,0,0,0,0
573,-1.654784,-0.0052004852,0.03280208,-6.1598915E-4,-9.821738E-4,0.0015478292,-0.2964321,0.040102877,9.794679,0,0,0,0,0,0,0,0,0,0,0,0,0,0,0,0,0,0,0,0,0
574,-1.6547828,-0.005257122,0.032800097,-0.0016812535,8.309063E-5,-5.8269966E-4,-0.319177,0.078410104,9.7563715,0,0,0,0,0,0,0,0,0,0,0,0,0,0,0,0,0,0,0,0,0
575,-1.6548922,-0.0052607004,0.032846954,4.4927528E-4,0.0011483551,0.0015478292,-0.34431612,0.05327099,9.793482,0,0,0,0,0,0,0,0,0,0,0,0,0,0,0,0,0,0,0,0,0
576,-1.6550187,-0.0052495343,0.032836556,4.4927528E-4,8.309063E-5,4.825648E-4,-0.3167828,0.046088383,9.7958765,0,0,0,0,0,0,0,0,0,0,0,0,0,0,0,0,0,0,0,0,0
577,-1.6551237,-0.005243521,0.032772865,4.4927528E-4,8.309063E-5,4.825648E-4,-0.29044658,0.048482586,9.792285,0,0,0,0,0,0,0,0,0,0,0,0,0,0,0,0,0,0,0,0,0
578,-1.6552011,-0.0052745794,0.032804508,-6.1598915E-4,8.309063E-5,4.825648E-4,-0.32516253,0.06404489,9.783905,0,0,0,0,0,0,0,0,0,0,0,0,0,0,0,0,0,0,0,0,0
579,-1.6553401,-0.005255878,0.03281995,0.0015145397,0.0011483551,-5.8269966E-4,-0.32875383,0.04249708,9.787497,0,0,0,0,0,0,0,0,0,0,0,0,0,0,0,0,0,0,0,0,0
580,-1.6555003,-0.0052254177,0.032835897,0.0015145397,0.0022136194,4.825648E-4,-0.32875383,0.036511578,9.775525,0,0,0,0,0,0,0,0,0,0,0,0,0,0,0,0,0,0,0,0,0
581,-1.6555645,-0.005242178,0.03284721,4.4927528E-4,-0.0020474382,-5.8269966E-4,-0.33713353,0.05207389,9.758766,0,0,0,0,0,0,0,0,0,0,0,0,0,0,0,0,0,0,0,0,0
582,-1.6555237,-0.0053200573,0.03263395,-6.1598915E-4,8.309063E-5,-5.8269966E-4,-0.27967268,0.061650693,9.768343,0,0,0,0,0,0,0,0,0,0,0,0,0,0,0,0,0,0,0,0,0
583,-1.6556314,-0.005310112,0.032620255,-6.1598915E-4,-9.821738E-4,4.825648E-4,-0.3131915,0.047285482,9.799467,0,0,0,0,0,0,0,0,0,0,0,0,0,0,0,0,0,0,0,0,0
584,-1.6558082,-0.005266414,0.032631308,4.3276369E-4,-8.9881686E-4,-7.491472E-4,-0.32396543,0.030526072,9.762358,0,0,0,0,0,0,0,0,0,0,0,0,0,0,0,0,0,0,0,0,0
585,-1.6558837,-0.0052725985,0.032634713,4.3276369E-4,0.0012317119,3.1611722E-4,-0.3012205,0.065242,9.759963,0,0,0,0,0,0,0,0,0,0,0,0,0,0,0,0,0,0,0,0,0
586,-1.6558841,-0.0053152596,0.03262998,-6.3250074E-4,1.6644757E-4,0.0013813816,-0.3167828,0.0724246,9.774328,0,0,0,0,0,0,0,0,0,0,0,0,0,0,0,0,0,0,0,0,0
587,-1.656222,-0.0053418046,0.032668315,-6.3250074E-4,-8.9881686E-4,3.1611722E-4,-0.32635963,0.034117375,9.738416,0,0,0,0,0,0,0,0,0,0,0,0,0,0,0,0,0,0,0,0,0
588,-1.6562647,-0.0053557437,0.032633875,-6.3250074E-4,0.0012317119,0.0013813816,-0.3036147,0.05925649,9.807847,0,0,0,0,0,0,0,0,0,0,0,0,0,0,0,0,0,0,0,0,0
589,-1.6563563,-0.0053501837,0.032670505,0.001498028,-8.9881686E-4,3.1611722E-4,-0.33713353,0.049679685,9.77792,0,0,0,0,0,0,0,0,0,0,0,0,0,0,0,0,0,0,0,0,0
590,-1.6563573,-0.005390989,0.032722406,-6.3250074E-4,1.6644757E-4,3.1611722E-4,-0.34551322,0.0724246,9.793482,0,0,0,0,0,0,0,0,0,0,0,0,0,0,0,0,0,0,0,0,0
591,-1.6565508,-0.0052710148,0.032758296,-6.3250074E-4,-8.9881686E-4,-7.491472E-4,-0.32875383,0.04369418,9.7863,0,0,0,0,0,0,0,0,0,0,0,0,0,0,0,0,0,0,0,0,0
592,-1.6566449,-0.0052596186,0.032754395,4.3276369E-4,1.6644757E-4,-7.491472E-4,-0.33952773,0.065242,9.765948,0,0,0,0,0,0,0,0,0,0,0,0,0,0,0,0,0,0,0,0,0
593,-1.6567131,-0.005258439,0.03272502,-0.0016977652,-8.9881686E-4,3.1611722E-4,-0.3060089,0.050876785,9.77792,0,0,0,0,0,0,0,0,0,0,0,0,0,0,0,0,0,0,0,0,0
594,-1.6567076,-0.0052963635,0.032722823,-0.0016977652,0.0012317119,-7.491472E-4,-0.319177,0.0700304,9.782708,0,0,0,0,0,0,0,0,0,0,0,0,0,0,0,0,0,0,0,0,0
595,-1.6567914,-0.0052895113,0.03273542,-7.491472E-4,-8.1572623E-4,4.1598576E-4,-0.32635963,0.048482586,9.781511,0,0,0,0,0,0,0,0,0,0,0,0,0,0,0,0,0,0,0,0,0
596,-1.6567904,-0.0051813824,0.032492477,-0.0018144116,2.495382E-4,-6.492787E-4,-0.32276833,0.048482586,9.7958765,0,0,0,0,0,0,0,0,0,0,0,0,0,0,0,0,0,0,0,0,0
597,-1.6568522,-0.005186749,0.0325056,-0.0028796762,2.495382E-4,-6.492787E-4,-0.32396543,0.05327099,9.76954,0,0,0,0,0,0,0,0,0,0,0,0,0,0,0,0,0,0,0,0,0
598,-1.657014,-0.0051431013,0.032543864,0.002446646,0.0013148027,-6.492787E-4,-0.3203741,0.040102877,9.749189,0,0,0,0,0,0,0,0,0,0,0,0,0,0,0,0,0,0,0,0,0
599,-1.6570208,-0.0051733893,0.032529842,-7.491472E-4,-8.1572623E-4,-0.0017145431,-0.3119944,0.065242,9.794679,0,0,0,0,0,0,0,0,0,0,0,0,0,0,0,0,0,0,0,0,0
600,-1.6567951,-0.005134411,0.032585118,-7.491472E-4,-8.1572623E-4,4.1598576E-4,-0.32875383,0.012569559,9.7719345,0,0,0,0,0,0,0,0,0,0,0,0,0,0,0,0,0,0,0,0,0
601,-1.6565825,-0.0050966144,0.032596227,-7.491472E-4,-8.1572623E-4,-0.0017145431,-0.3119944,0.04249708,9.759963,0,0,0,0,0,0,0,0,0,0,0,0,0,0,0,0,0,0,0,0,0
602,-1.6563032,-0.0050960793,0.03261054,-7.491472E-4,0.0013148027,4.1598576E-4,-0.32635963,0.049679685,9.793482,0,0,0,0,0,0,0,0,0,0,0,0,0,0,0,0,0,0,0,0,0
603,-1.6560453,-0.005085987,0.03260401,0.0013813816,0.0013148027,4.1598576E-4,-0.3155857,0.044891283,9.7719345,0,0,0,0,0,0,0,0,0,0,0,0,0,0,0,0,0,0,0,0,0
604,-1.6557566,-0.0050934684,0.032581784,-0.0018144116,-8.1572623E-4,-6.492787E-4,-0.3179799,0.04249708,9.728839,0,0,0,0,0,0,0,0,0,0,0,0,0,0,0,0,0,0,0,0,0
605,-1.6557405,-0.004976418,0.032637894,7.323693E-4,0.0014314491,0.0027462516,-0.33114803,0.037708677,9.794679,0,0,0,0,0,0,0,0,0,0,0,0,0,0,0,0,0,0,0,0,0
606,-1.6554887,-0.0049737287,0.03267081,-3.3289514E-4,3.6618466E-4,6.1572285E-4,-0.33473933,0.047285482,9.759963,0,0,0,0,0,0,0,0,0,0,0,0,0,0,0,0,0,0,0,0,0
607,-1.6554868,-0.005027261,0.032672703,-0.0024634239,3.6618466E-4,6.1572285E-4,-0.3203741,0.074818805,9.774328,0,0,0,0,0,0,0,0,0,0,0,0,0,0,0,0,0,0,0,0,0
608,-1.6556449,-0.0050013363,0.032696165,-0.0013981595,0.0014314491,0.0016809873,-0.33114803,0.036511578,9.7803135,0,0,0,0,0,0,0,0,0,0,0,0,0,0,0,0,0,0,0,0,0
609,-1.6553336,-0.004979632,0.03298024,-3.3289514E-4,0.0024967135,-0.0015148061,-0.2976292,0.065242,9.788693,0,0,0,0,0,0,0,0,0,0,0,0,0,0,0,0,0,0,0,0,0
610,-1.6553595,-0.0050257053,0.033037193,-0.0013981595,0.0024967135,-4.4954158E-4,-0.35030162,0.0712275,9.773131,0,0,0,0,0,0,0,0,0,0,0,0,0,0,0,0,0,0,0,0,0
611,-1.6554796,-0.005021369,0.033067185,7.323693E-4,3.6618466E-4,6.1572285E-4,-0.33952773,0.047285482,9.827001,0,0,0,0,0,0,0,0,0,0,0,0,0,0,0,0,0,0,0,0,0
612,-1.6555684,-0.005030121,0.033079762,-3.3289514E-4,-6.9907977E-4,-4.4954158E-4,-0.3119944,0.050876785,9.762358,0,0,0,0,0,0,0,0,0,0,0,0,0,0,0,0,0,0,0,0,0
613,-1.6557491,-0.004989499,0.033068586,-3.3289514E-4,3.6618466E-4,-4.4954158E-4,-0.3179799,0.02932897,9.774328,0,0,0,0,0,0,0,0,0,0,0,0,0,0,0,0,0,0,0,0,0
614,-1.6557735,-0.005087844,0.03294739,-3.3289514E-4,3.6618466E-4,-4.4954158E-4,-0.3096002,0.050876785,9.797073,0,0,0,0,0,0,0,0,0,0,0,0,0,0,0,0,0,0,0,0,0
615,-1.6559454,-0.005053217,0.032990705,7.323693E-4,-0.0017643442,-4.4954158E-4,-0.33713353,0.047285482,9.767146,0,0,0,0,0,0,0,0,0,0,0,0,0,0,0,0,0,0,0,0,0
616,-1.6560788,-0.0050365455,0.033029728,-0.0014647386,-9.321064E-4,2.1624868E-4,-0.34192193,0.04129998,9.781511,0,0,0,0,0,0,0,0,0,0,0,0,0,0,0,0,0,0,0,0,0
617,-1.6561675,-0.0050351266,0.032998525,-3.9947417E-4,1.3315806E-4,0.0012815131,-0.307206,0.048482586,9.758766,0,0,0,0,0,0,0,0,0,0,0,0,0,0,0,0,0,0,0,0,0
618,-1.6563371,-0.0049551064,0.032979723,-3.9947417E-4,1.3315806E-4,-8.490158E-4,-0.3048118,0.035314474,9.76954,0,0,0,0,0,0,0,0,0,0,0,0,0,0,0,0,0,0,0,0,0
619,-1.6563028,-0.0050140903,0.03294186,6.657903E-4,0.0011984225,-0.0029795447,-0.3036147,0.077213004,9.763555,0,0,0,0,0,0,0,0,0,0,0,0,0,0,0,0,0,0,0,0,0
620,-1.6563959,-0.0050131856,0.032964382,6.657903E-4,-9.321064E-4,-8.490158E-4,-0.33234513,0.048482586,9.751583,0,0,0,0,0,0,0,0,0,0,0,0,0,0,0,0,0,0,0,0,0
621,-1.6565473,-0.004982776,0.032993052,-3.9947417E-4,-9.321064E-4,-8.490158E-4,-0.33593643,0.034117375,9.762358,0,0,0,0,0,0,0,0,0,0,0,0,0,0,0,0,0,0,0,0,0
622,-1.6565455,-0.0050286674,0.033027135,0.0017310547,1.3315806E-4,-8.490158E-4,-0.33952773,0.0712275,9.781511,0,0,0,0,0,0,0,0,0,0,0,0,0,0,0,0,0,0,0,0,0
623,-1.6564907,-0.005263404,0.03320739,6.657903E-4,1.3315806E-4,2.1624868E-4,-0.33354223,0.054468088,9.76954,0,0,0,0,0,0,0,0,0,0,0,0,0,0,0,0,0,0,0,0,0
624,-1.6567054,-0.0051937033,0.033214547,6.657903E-4,1.3315806E-4,-8.490158E-4,-0.32755673,0.017357962,9.755175,0,0,0,0,0,0,0,0,0,0,0,0,0,0,0,0,0,0,0,0,0
625,-1.656736,-0.005218471,0.03325519,6.657903E-4,1.3315806E-4,-8.490158E-4,-0.34431612,0.06284779,9.764751,0,0,0,0,0,0,0,0,0,0,0,0,0,0,0,0,0,0,0,0,0
626,-1.6567856,-0.0052281646,0.033239327,0.0017310547,0.0022636869,-8.490158E-4,-0.3167828,0.05566519,9.755175,0,0,0,0,0,0,0,0,0,0,0,0,0,0,0,0,0,0,0,0,0
627,-1.6570425,-0.004945462,0.032924164,-0.0017976337,-0.0010487528,6.657903E-4,-0.3060089,0.026934769,9.739613,0,0,0,0,0,0,0,0,0,0,0,0,0,0,0,0,0,0,0,0,0
628,-1.6570715,-0.00496793,0.032914676,-7.323693E-4,-0.0010487528,-0.0014647386,-0.3167828,0.05925649,9.758766,0,0,0,0,0,0,0,0,0,0,0,0,0,0,0,0,0,0,0,0,0
629,-1.6570616,-0.0050092703,0.032906476,-7.323693E-4,-0.0010487528,6.657903E-4,-0.3179799,0.0688333,9.779117,0,0,0,0,0,0,0,0,0,0,0,0,0,0,0,0,0,0,0,0,0
630,-1.6572102,-0.0049740127,0.03294095,-7.323693E-4,1.6511598E-5,6.657903E-4,-0.33833063,0.03172317,9.765948,0,0,0,0,0,0,0,0,0,0,0,0,0,0,0,0,0,0,0,0,0
631,-1.6572686,-0.0049810507,0.032949835,3.3289514E-4,-0.0021140173,0.0017310547,-0.32635963,0.05207389,9.783905,0,0,0,0,0,0,0,0,0,0,0,0,0,0,0,0,0,0,0,0,0
632,-1.6576256,-0.004997415,0.03262659,-0.0017976337,1.6511598E-5,-3.9947417E-4,-0.3012205,0.03172317,9.793482,0,0,0,0,0,0,0,0,0,0,0,0,0,0,0,0,0,0,0,0,0
633,-1.6577663,-0.004952521,0.032577608,0.0024634239,-0.0010487528,0.0017310547,-0.295235,0.026934769,9.7803135,0,0,0,0,0,0,0,0,0,0,0,0,0,0,0,0,0,0,0,0,0
634,-1.6578318,-0.0049502547,0.03258682,0.0013981595,0.001081776,0.0017310547,-0.33473933,0.05686229,9.767146,0,0,0,0,0,0,0,0,0,0,0,0,0,0,0,0,0,0,0,0,0
635,-1.6578538,-0.0049749706,0.03266441,0.0024634239,1.6511598E-5,0.0017310547,-0.35628715,0.060453594,9.765948,0,0,0,0,0,0,0,0,0,0,0,0,0,0,0,0,0,0,0,0,0
636,-1.658028,-0.004871409,0.03256238,-0.0017976337,1.6511598E-5,0.0017310547,-0.33713353,0.04369418,9.773131,0,0,0,0,0,0,0,0,0,0,0,0,0,0,0,0,0,0,0,0,0
637,-1.6581097,-0.004858848,0.03255974,-2.8309404E-4,-0.0017976337,-0.0027132286,-0.3167828,0.04369418,9.744401,0,0,0,0,0,0,0,0,0,0,0,0,0,0,0,0,0,0,0,0,0
638,-1.6581309,-0.0048729195,0.032518983,-2.8309404E-4,3.3289514E-4,-0.0027132286,-0.2988263,0.054468088,9.787497,0,0,0,0,0,0,0,0,0,0,0,0,0,0,0,0,0,0,0,0,0
639,-1.658138,-0.004894275,0.032487582,0.0018474348,-7.323693E-4,0.0015478292,-0.3024176,0.05805939,9.768343,0,0,0,0,0,0,0,0,0,0,0,0,0,0,0,0,0,0,0,0,0
640,-1.6582614,-0.00486289,0.03273833,-2.8309404E-4,0.0013981595,4.825648E-4,-0.36346975,0.065242,9.785102,0,0,0,0,0,0,0,0,0,0,0,0,0,0,0,0,0,0,0,0,0
641,-1.6583128,-0.004867599,0.032775667,-2.8309404E-4,0.0013981595,-0.0016479641,-0.33713353,0.049679685,9.738416,0,0,0,0,0,0,0,0,0,0,0,0,0,0,0,0,0,0,0,0,0
642,-1.6583242,-0.004891542,0.032807946,-0.0013483585,3.3289514E-4,-5.8269966E-4,-0.33593643,0.05925649,9.764751,0,0,0,0,0,0,0,0,0,0,0,0,0,0,0,0,0,0,0,0,0
643,-1.6584357,-0.004856152,0.032750886,7.821704E-4,-0.0017976337,0.0015478292,-0.2928408,0.030526072,9.773131,0,0,0,0,0,0,0,0,0,0,0,0,0,0,0,0,0,0,0,0,0
644,-1.6585231,-0.004836309,0.032735374,-2.8309404E-4,0.0013981595,0.0026130937,-0.3119944,0.037708677,9.753978,0,0,0,0,0,0,0,0,0,0,0,0,0,0,0,0,0,0,0,0,0
645,-1.658459,-0.004958573,0.032973837,7.821704E-4,3.3289514E-4,4.825648E-4,-0.34671032,0.05805939,9.77792,0,0,0,0,0,0,0,0,0,0,0,0,0,0,0,0,0,0,0,0,0
646,-1.6585524,-0.004943806,0.0330696,-0.0013483585,0.0013981595,-5.8269966E-4,-0.36945525,0.04129998,9.779117,0,0,0,0,0,0,0,0,0,0,0,0,0,0,0,0,0,0,0,0,0
647,-1.6585721,-0.004958653,0.033084873,-0.0013483585,0.0013981595,-5.8269966E-4,-0.33473933,0.054468088,9.793482,0,0,0,0,0,0,0,0,0,0,0,0,0,0,0,0,0,0,0,0,0
648,-1.6585592,-0.00498285,0.033020884,5.659217E-4,-8.1572623E-4,-0.0014815165,-0.2928408,0.060453594,9.7958765,0,0,0,0,0,0,0,0,0,0,0,0,0,0,0,0,0,0,0,0,0
649,-1.6586473,-0.004861005,0.03285446,-4.993427E-4,-8.1572623E-4,-4.1625206E-4,-0.2940379,0.022146367,9.781511,0,0,0,0,0,0,0,0,0,0,0,0,0,0,0,0,0,0,0,0,0
650,-1.6587762,-0.004823672,0.03290058,5.659217E-4,0.0013148027,6.4901233E-4,-0.32276833,0.034117375,9.765948,0,0,0,0,0,0,0,0,0,0,0,0,0,0,0,0,0,0,0,0,0
651,-1.6586996,-0.004892502,0.032983866,-4.993427E-4,0.002380067,-4.1625206E-4,-0.36227265,0.08080431,9.76954,0,0,0,0,0,0,0,0,0,0,0,0,0,0,0,0,0,0,0,0,0
652,-1.6586946,-0.0049232114,0.033045817,-4.993427E-4,2.495382E-4,-0.0014815165,-0.35269585,0.06284779,9.770737,0,0,0,0,0,0,0,0,0,0,0,0,0,0,0,0,0,0,0,0,0
653,-1.6587119,-0.004933615,0.033007946,0.0026964506,0.0013148027,-4.1625206E-4,-0.3048118,0.05327099,9.781511,0,0,0,0,0,0,0,0,0,0,0,0,0,0,0,0,0,0,0,0,0
654,-1.6585358,-0.005009484,0.033003096,5.659217E-4,-8.1572623E-4,-4.1625206E-4,-0.3036147,0.05207389,9.767146,0,0,0,0,0,0,0,0,0,0,0,0,0,0,0,0,0,0,0,0,0
655,-1.6585429,-0.005028276,0.033004615,-0.0026298715,0.0013148027,-0.0014815165,-0.32276833,0.05805939,9.753978,0,0,0,0,0,0,0,0,0,0,0,0,0,0,0,0,0,0,0,0,0
656,-1.6581535,-0.0050658016,0.03303299,0.0016311861,-0.0018809907,-4.1625206E-4,-0.33713353,0.0676362,9.78989,0,0,0,0,0,0,0,0,0,0,0,0,0,0,0,0,0,0,0,0,0
657,-1.6578832,-0.0050464342,0.033058938,-4.993427E-4,-0.0018809907,0.0017142767,-0.33593643,0.040102877,9.781511,0,0,0,0,0,0,0,0,0,0,0,0,0,0,0,0,0,0,0,0,0
658,-1.6573737,-0.005252853,0.032778405,0.0016311861,-0.0018809907,-0.0014815165,-0.3060089,0.048482586,9.757569,0,0,0,0,0,0,0,0,0,0,0,0,0,0,0,0,0,0,0,0,0
659,-1.6570847,-0.00524209,0.03273922,-8.8230526E-4,8.309063E-5,6.4901233E-4,-0.3012205,0.046088383,9.770737,0,0,0,0,0,0,0,0,0,0,0,0,0,0,0,0,0,0,0,0,0
660,-1.6568182,-0.0052240444,0.032714423,-8.8230526E-4,-9.821738E-4,-0.0014815165,-0.3084031,0.04249708,9.787497,0,0,0,0,0,0,0,0,0,0,0,0,0,0,0,0,0,0,0,0,0
661,-1.6565988,-0.005187028,0.032716807,0.0012482236,8.309063E-5,-4.1625206E-4,-0.3203741,0.032920275,9.753978,0,0,0,0,0,0,0,0,0,0,0,0,0,0,0,0,0,0,0,0,0
662,-1.6563183,-0.0051871343,0.032765422,1.8295916E-4,8.309063E-5,-0.0036120454,-0.34431612,0.050876785,9.792285,0,0,0,0,0,0,0,0,0,0,0,0,0,0,0,0,0,0,0,0,0
663,-1.6561167,-0.005216689,0.032918155,-0.0019475697,0.0011483551,-0.0014815165,-0.3215712,0.05207389,9.779117,0,0,0,0,0,0,0,0,0,0,0,0,0,0,0,0,0,0,0,0,0
664,-1.6558722,-0.0052016424,0.032943957,-8.8230526E-4,8.309063E-5,6.4901233E-4,-0.33473933,0.04369418,9.781511,0,0,0,0,0,0,0,0,0,0,0,0,0,0,0,0,0,0,0,0,0
665,-1.6556209,-0.005189317,0.032920107,1.8295916E-4,-0.0020474382,6.4901233E-4,-0.3107973,0.044891283,9.785102,0,0,0,0,0,0,0,0,0,0,0,0,0,0,0,0,0,0,0,0,0
666,-1.655339,-0.005196825,0.032918897,1.8295916E-4,-9.821738E-4,-4.1625206E-4,-0.3215712,0.054468088,9.782708,0,0,0,0,0,0,0,0,0,0,0,0,0,0,0,0,0,0,0,0,0
667,-1.6552873,-0.005237919,0.033100627,1.8295916E-4,0.0011483551,0.0017142767,-0.33833063,0.05566519,9.799467,0,0,0,0,0,0,0,0,0,0,0,0,0,0,0,0,0,0,0,0,0
668,-1.6550678,-0.0052176802,0.03311644,1.8295916E-4,-0.0020474382,6.4901233E-4,-0.33114803,0.04129998,9.767146,0,0,0,0,0,0,0,0,0,0,0,0,0,0,0,0,0,0,0,0,0
669,-1.6548438,-0.005200333,0.033102795,-0.003845072,0.0013148027,-2.330266E-4,-0.3167828,0.04249708,9.763555,0,0,0,0,0,0,0,0,0,0,0,0,0,0,0,0,0,0,0,0,0
670,-1.6545255,-0.0052343733,0.033104535,-0.0017145431,0.0013148027,8.322378E-4,-0.32516253,0.0676362,9.793482,0,0,0,0,0,0,0,0,0,0,0,0,0,0,0,0,0,0,0,0,0
671,-1.654362,-0.005194694,0.033133443,0.0014812502,-8.1572623E-4,-2.330266E-4,-0.33713353,0.03172317,9.753978,0,0,0,0,0,0,0,0,0,0,0,0,0,0,0,0,0,0,0,0,0
672,-1.6541944,-0.0051303133,0.0332742,0.0014812502,0.002380067,-2.330266E-4,-0.3084031,0.05925649,9.770737,0,0,0,0,0,0,0,0,0,0,0,0,0,0,0,0,0,0,0,0,0
673,-1.6538914,-0.00516348,0.033256207,4.1598576E-4,2.495382E-4,8.322378E-4,-0.3167828,0.0664391,9.781511,0,0,0,0,0,0,0,0,0,0,0,0,0,0,0,0,0,0,0,0,0
674,-1.654129,-0.005112771,0.033289492,4.1598576E-4,-8.1572623E-4,8.322378E-4,-0.34192193,0.025737667,9.787497,0,0,0,0,0,0,0,0,0,0,0,0,0,0,0,0,0,0,0,0,0
675,-1.6542549,-0.0051146992,0.033294596,-6.492787E-4,-0.002946255,8.322378E-4,-0.32755673,0.050876785,9.76116,0,0,0,0,0,0,0,0,0,0,0,0,0,0,0,0,0,0,0,0,0
676,-1.6544273,-0.004926623,0.033159472,4.1598576E-4,2.495382E-4,8.322378E-4,-0.3119944,0.0664391,9.767146,0,0,0,0,0,0,0,0,0,0,0,0,0,0,0,0,0,0,0,0,0
677,-1.6545435,-0.004932163,0.03314441,-6.492787E-4,2.495382E-4,0.0018975022,-0.3167828,0.050876785,9.7719345,0,0,0,0,0,0,0,0,0,0,0,0,0,0,0,0,0,0,0,0,0
678,-1.6545646,-0.004981877,0.033093754,-0.0017145431,2.495382E-4,0.0018975022,-0.2988263,0.0724246,9.758766,0,0,0,0,0,0,0,0,0,0,0,0,0,0,0,0,0,0,0,0,0
679,-1.65474,-0.004956815,0.03310105,4.1598576E-4,-8.1572623E-4,-2.330266E-4,-0.32755673,0.036511578,9.7863,0,0,0,0,0,0,0,0,0,0,0,0,0,0,0,0,0,0,0,0,0
680,-1.6548507,-0.004961878,0.03309284,-0.0022969765,0.0020972393,-0.0017145431,-0.319177,0.050876785,9.759963,0,0,0,0,0,0,0,0,0,0,0,0,0,0,0,0,0,0,0,0,0
681,-1.6548978,-0.0051406594,0.033040587,-1.6644757E-4,0.0020972393,-6.492787E-4,-0.3000234,0.077213004,9.765948,0,0,0,0,0,0,0,0,0,0,0,0,0,0,0,0,0,0,0,0,0
682,-1.6549861,-0.0051496113,0.033007793,-0.0012317119,-3.3289514E-5,-0.0017145431,-0.3060089,0.054468088,9.742006,0,0,0,0,0,0,0,0,0,0,0,0,0,0,0,0,0,0,0,0,0
683,-1.6551015,-0.0051410664,0.032945387,8.9881686E-4,-3.3289514E-5,4.1598576E-4,-0.2916437,0.046088383,9.755175,0,0,0,0,0,0,0,0,0,0,0,0,0,0,0,0,0,0,0,0,0
684,-1.6551917,-0.005147392,0.03291848,-1.6644757E-4,-3.3289514E-5,4.1598576E-4,-0.3084031,0.05327099,9.7563715,0,0,0,0,0,0,0,0,0,0,0,0,0,0,0,0,0,0,0,0,0
685,-1.6552372,-0.004973897,0.03307317,-0.0012317119,-0.001098554,4.1598576E-4,-0.33114803,0.046088383,9.7803135,0,0,0,0,0,0,0,0,0,0,0,0,0,0,0,0,0,0,0,0,0
686,-1.6553445,-0.0049808626,0.03312792,-0.0012317119,-3.3289514E-5,4.1598576E-4,-0.35030162,0.05207389,9.77792,0,0,0,0,0,0,0,0,0,0,0,0,0,0,0,0,0,0,0,0,0
687,-1.6553963,-0.0050098025,0.03312573,-1.6644757E-4,-0.001098554,-0.0017145431,-0.32276833,0.06284779,9.7719345,0,0,0,0,0,0,0,0,0,0,0,0,0,0,0,0,0,0,0,0,0
688,-1.6555029,-0.005006125,0.033080608,-1.6644757E-4,0.0020972393,-6.492787E-4,-0.3024176,0.047285482,9.793482,0,0,0,0,0,0,0,0,0,0,0,0,0,0,0,0,0,0,0,0,0
689,-1.6556118,-0.0050004586,0.033038888,-0.0012317119,-0.001098554,4.1598576E-4,-0.3024176,0.046088383,9.753978,0,0,0,0,0,0,0,0,0,0,0,0,0,0,0,0,0,0,0,0,0
690,-1.6558074,-0.0051023234,0.03306952,8.9881686E-4,-3.3289514E-5,4.1598576E-4,-0.34072483,0.040102877,9.7863,0,0,0,0,0,0,0,0,0,0,0,0,0,0,0,0,0,0,0,0,0
691,-1.6558712,-0.0051239827,0.03313737,9.1532845E-4,9.653959E-4,6.657903E-4,-0.35628715,0.060453594,9.767146,0,0,0,0,0,0,0,0,0,0,0,0,0,0,0,0,0,0,0,0,0
692,-1.6559639,-0.0051257745,0.033155896,-1.4993596E-4,-0.001165133,-3.9947417E-4,-0.33234513,0.050876785,9.752781,0,0,0,0,0,0,0,0,0,0,0,0,0,0,0,0,0,0,0,0,0
693,-1.6560647,-0.0051149833,0.03308877,-0.0012152004,9.653959E-4,-0.0014647386,-0.2916437,0.044891283,9.783905,0,0,0,0,0,0,0,0,0,0,0,0,0,0,0,0,0,0,0,0,0
694,-1.6557654,-0.005077976,0.033174075,-1.4993596E-4,9.653959E-4,0.002796319,-0.3036147,0.04249708,9.793482,0,0,0,0,0,0,0,0,0,0,0,0,0,0,0,0,0,0,0,0,0
695,-1.6555214,-0.0050660833,0.033153422,9.1532845E-4,-9.986854E-5,6.657903E-4,-0.3131915,0.04369418,9.740809,0,0,0,0,0,0,0,0,0,0,0,0,0,0,0,0,0,0,0,0,0
696,-1.6552032,-0.0050982237,0.033189956,9.1532845E-4,-9.986854E-5,6.657903E-4,-0.34192193,0.065242,9.770737,0,0,0,0,0,0,0,0,0,0,0,0,0,0,0,0,0,0,0,0,0
697,-1.6549518,-0.00510032,0.03324036,9.1532845E-4,-0.001165133,-0.0014647386,-0.34910452,0.050876785,9.7719345,0,0,0,0,0,0,0,0,0,0,0,0,0,0,0,0,0,0,0,0,0
698,-1.6547259,-0.005087737,0.033228893,-0.0012152004,-0.0022303974,-3.9947417E-4,-0.319177,0.04369418,9.767146,0,0,0,0,0,0,0,0,0,0,0,0,0,0,0,0,0,0,0,0,0
699,-1.6542768,-0.005204205,0.03305167,9.1532845E-4,-9.986854E-5,6.657903E-4,-0.3119944,0.050876785,9.752781,0,0,0,0,0,0,0,0,0,0,0,0,0,0,0,0,0,0,0,0,0
700,-1.6540469,-0.005197016,0.03302271,9.1532845E-4,-9.986854E-5,-3.9947417E-4,-0.3084031,0.047285482,9.755175,0,0,0,0,0,0,0,0,0,0,0,0,0,0,0,0,0,0,0,0,0
701,-1.6538305,-0.0051899957,0.03306078,5.158543E-4,2.828277E-4,0.0016644757,-0.34072483,0.047285482,9.751583,0,0,0,0,0,0,0,0,0,0,0,0,0,0,0,0,0,0,0,0,0
702,-1.6536416,-0.0051704673,0.033082724,-5.494101E-4,2.828277E-4,-0.002596582,-0.33473933,0.04129998,9.7958765,0,0,0,0,0,0,0,0,0,0,0,0,0,0,0,0,0,0,0,0,0
703,-1.6535813,-0.0052705994,0.032829683,5.158543E-4,2.828277E-4,0.0016644757,-0.319177,0.06284779,9.775525,0,0,0,0,0,0,0,0,0,0,0,0,0,0,0,0,0,0,0,0,0
704,-1.6533296,-0.0052789776,0.032788943,5.158543E-4,-7.8243675E-4,-0.0015313176,-0.3012205,0.05566519,9.779117,0,0,0,0,0,0,0,0,0,0,0,0,0,0,0,0,0,0,0,0,0
705,-1.6531695,-0.005245487,0.032779943,0.0015811187,-7.8243675E-4,-4.660532E-4,-0.3167828,0.035314474,9.792285,0,0,0,0,0,0,0,0,0,0,0,0,0,0,0,0,0,0,0,0,0
706,-1.6530266,-0.005205383,0.032769155,0.0026463831,2.828277E-4,-4.660532E-4,-0.3155857,0.03172317,9.785102,0,0,0,0,0,0,0,0,0,0,0,0,0,0,0,0,0,0,0,0,0
707,-1.6527737,-0.0052227443,0.032750987,-0.0016146746,2.828277E-4,-4.660532E-4,-0.3107973,0.05925649,9.751583,0,0,0,0,0,0,0,0,0,0,0,0,0,0,0,0,0,0,0,0,0
708,-1.6526263,-0.0050199833,0.032589115,-5.494101E-4,-7.8243675E-4,5.9921126E-4,-0.2916437,0.054468088,9.775525,0,0,0,0,0,0,0,0,0,0,0,0,0,0,0,0,0,0,0,0,0
709,-1.6524438,-0.005009131,0.032569487,5.158543E-4,-7.8243675E-4,0.00272974,-0.3084031,0.04369418,9.753978,0,0,0,0,0,0,0,0,0,0,0,0,0,0,0,0,0,0,0,0,0
710,-1.6522685,-0.004998186,0.032572523,5.158543E-4,-7.8243675E-4,0.00272974,-0.3203741,0.04369418,9.787497,0,0,0,0,0,0,0,0,0,0,0,0,0,0,0,0,0,0,0,0,0
711,-1.6520125,-0.005026994,0.03253836,-5.494101E-4,-7.8243675E-4,5.9921126E-4,-0.3012205,0.06284779,9.7563715,0,0,0,0,0,0,0,0,0,0,0,0,0,0,0,0,0,0,0,0,0
712,-1.6518813,-0.0047648484,0.032637045,0.0023467776,-6.825682E-4,0.0022969765,-0.34192193,0.04369418,9.775525,0,0,0,0,0,0,0,0,0,0,0,0,0,0,0,0,0,0,0,0,0
713,-1.6516337,-0.0048004305,0.03263913,-8.490158E-4,3.8269625E-4,-8.9881686E-4,-0.3203741,0.06404489,9.781511,0,0,0,0,0,0,0,0,0,0,0,0,0,0,0,0,0,0,0,0,0
714,-1.6513797,-0.004839948,0.032625332,0.0023467776,-0.0017478326,-0.0019640813,-0.3131915,0.0664391,9.799467,0,0,0,0,0,0,0,0,0,0,0,0,0,0,0,0,0,0,0,0,0
715,-1.6512241,-0.0048302235,0.03259011,2.1624868E-4,3.8269625E-4,-8.9881686E-4,-0.3012205,0.04249708,9.7563715,0,0,0,0,0,0,0,0,0,0,0,0,0,0,0,0,0,0,0,0,0
716,-1.6510594,-0.0048305085,0.032607157,-0.0029795447,3.8269625E-4,-8.9881686E-4,-0.32635963,0.047285482,9.755175,0,0,0,0,0,0,0,0,0,0,0,0,0,0,0,0,0,0,0,0,0
717,-1.6504202,-0.0047455705,0.032502186,-8.490158E-4,0.0014479606,1.6644757E-4,-0.3096002,0.0664391,9.746795,0,0,0,0,0,0,0,0,0,0,0,0,0,0,0,0,0,0,0,0,0
718,-1.6502947,-0.004735213,0.03251062,0.0012815131,3.8269625E-4,-8.9881686E-4,-0.3215712,0.04129998,9.763555,0,0,0,0,0,0,0,0,0,0,0,0,0,0,0,0,0,0,0,0,0
719,-1.6501155,-0.0047542197,0.03252477,0.0012815131,-0.0017478326,1.6644757E-4,-0.32516253,0.05566519,9.785102,0,0,0,0,0,0,0,0,0,0,0,0,0,0,0,0,0,0,0,0,0
720,-1.6500261,-0.0047289925,0.03253528,-8.490158E-4,3.8269625E-4,-8.9881686E-4,-0.32276833,0.034117375,9.762358,0,0,0,0,0,0,0,0,0,0,0,0,0,0,0,0,0,0,0,0,0
721,-1.6496319,-0.004473449,0.032746002,-0.0019142802,0.0014479606,1.6644757E-4,-0.32755673,0.048482586,9.776723,0,0,0,0,0,0,0,0,0,0,0,0,0,0,0,0,0,0,0,0,0
722,-1.6495134,-0.0044757253,0.032784026,-0.0019142802,-0.002813097,1.6644757E-4,-0.32995093,0.04369418,9.519346,0,0,0,0,0,0,0,0,0,0,0,0,0,0,0,0,0,0,0,0,0
723,-1.6493526,-0.004496412,0.032761496,4.825648E-4,0.0012482236,-5.494101E-4,-0.3060089,0.05327099,9.662998,0,0,0,0,0,0,0,0,0,0,0,0,0,0,0,0,0,0,0,0,0
724,-1.6490847,-0.00457294,0.03274457,4.825648E-4,0.002313488,-0.0016146746,-0.3143886,0.08200141,9.847352,0,0,0,0,0,0,0,0,0,0,0,0,0,0,0,0,0,0,0,0,0
725,-1.648951,-0.0045850924,0.0327642,4.825648E-4,-0.0030128341,-5.494101E-4,-0.33114803,0.050876785,9.81503,0,0,0,0,0,0,0,0,0,0,0,0,0,0,0,0,0,0,0,0,0
726,-1.6488055,-0.004766756,0.033246227,-5.8269966E-4,-0.0019475697,-5.494101E-4,-0.33833063,0.035314474,9.767146,0,0,0,0,0,0,0,0,0,0,0,0,0,0,0,0,0,0,0,0,0
727,-1.648979,-0.0048092683,0.03330517,4.825648E-4,0.0012482236,-5.494101E-4,-0.35509005,0.0676362,9.80665,0,0,0,0,0,0,0,0,0,0,0,0,0,0,0,0,0,0,0,0,0
728,-1.649192,-0.0048239566,0.033298645,-0.0016479641,-0.0019475697,-5.494101E-4,-0.32396543,0.054468088,9.8198185,0,0,0,0,0,0,0,0,0,0,0,0,0,0,0,0,0,0,0,0,0
729,-1.6494496,-0.0048046815,0.03319063,-0.0027132286,-0.0040780986,-5.494101E-4,-0.27249008,0.037708677,9.764751,0,0,0,0,0,0,0,0,0,0,0,0,0,0,0,0,0,0,0,0,0
730,-1.6498673,-0.005020899,0.033322785,-5.8269966E-4,1.8295916E-4,0.0015811187,-0.3084031,0.049679685,9.744401,0,0,0,0,0,0,0,0,0,0,0,0,0,0,0,0,0,0,0,0,0
731,-1.6501017,-0.00501703,0.03337664,4.825648E-4,1.8295916E-4,0.0015811187,-0.35269585,0.047285482,9.788693,0,0,0,0,0,0,0,0,0,0,0,0,0,0,0,0,0,0,0,0,0
732,-1.6502565,-0.0050477856,0.0333969,0.0015478292,-8.8230526E-4,-0.002679939,-0.33593643,0.06404489,9.764751,0,0,0,0,0,0,0,0,0,0,0,0,0,0,0,0,0,0,0,0,0
733,-1.6504718,-0.00504606,0.03341177,-0.0016812535,4.825648E-4,-0.001498028,-0.33354223,0.048482586,9.765948,0,0,0,0,0,0,0,0,0,0,0,0,0,0,0,0,0,0,0,0,0
734,-1.6507046,-0.0050551137,0.033290297,4.4927528E-4,-5.8269966E-4,-4.3276369E-4,-0.3036147,0.025737667,9.742006,0,0,0,0,0,0,0,0,0,0,0,0,0,0,0,0,0,0,0,0,0
735,-1.6508576,-0.0050752596,0.03324829,4.4927528E-4,-0.0016479641,-4.3276369E-4,-0.3048118,0.05925649,9.76954,0,0,0,0,0,0,0,0,0,0,0,0,0,0,0,0,0,0,0,0,0
736,-1.6510756,-0.005060625,0.03321141,4.4927528E-4,0.0026130937,-4.3276369E-4,-0.307206,0.04249708,9.779117,0,0,0,0,0,0,0,0,0,0,0,0,0,0,0,0,0,0,0,0,0
737,-1.6512908,-0.005053644,0.03326601,-0.0016812535,0.0015478292,-4.3276369E-4,-0.35149872,0.046088383,9.775525,0,0,0,0,0,0,0,0,0,0,0,0,0,0,0,0,0,0,0,0,0
738,-1.6514623,-0.0050615394,0.033261057,-0.0016812535,0.0015478292,6.3250074E-4,-0.32276833,0.05327099,9.7719345,0,0,0,0,0,0,0,0,0,0,0,0,0,0,0,0,0,0,0,0,0
739,-1.6517537,-0.0049667964,0.03325952,-6.1598915E-4,4.825648E-4,-4.3276369E-4,-0.2928408,0.04129998,9.7479925,0,0,0,0,0,0,0,0,0,0,0,0,0,0,0,0,0,0,0,0,0
740,-1.6519446,-0.0049569015,0.033198763,0.0015145397,-5.8269966E-4,0.0016977652,-0.295235,0.04369418,9.765948,0,0,0,0,0,0,0,0,0,0,0,0,0,0,0,0,0,0,0,0,0
741,-1.6521087,-0.0049642953,0.03320013,-6.1598915E-4,4.825648E-4,-4.3276369E-4,-0.32516253,0.05207389,9.770737,0,0,0,0,0,0,0,0,0,0,0,0,0,0,0,0,0,0,0,0,0
742,-1.6523662,-0.004927499,0.033255838,-6.1598915E-4,4.825648E-4,-4.3276369E-4,-0.35149872,0.030526072,9.763555,0,0,0,0,0,0,0,0,0,0,0,0,0,0,0,0,0,0,0,0,0
743,-1.6525987,-0.004867171,0.033100866,-6.1598915E-4,-0.0016479641,6.3250074E-4,-0.35509005,0.05686229,9.759963,0,0,0,0,0,0,0,0,0,0,0,0,0,0,0,0,0,0,0,0,0
744,-1.65272,-0.0048888284,0.033073533,7.323693E-4,-7.323693E-4,-5.8269966E-4,-0.3096002,0.05805939,9.752781,0,0,0,0,0,0,0,0,0,0,0,0,0,0,0,0,0,0,0,0,0
745,-1.6529309,-0.0048560654,0.032968123,7.323693E-4,-7.323693E-4,-5.8269966E-4,-0.27129298,0.03172317,9.755175,0,0,0,0,0,0,0,0,0,0,0,0,0,0,0,0,0,0,0,0,0
746,-1.6530882,-0.004858264,0.032967646,7.323693E-4,3.3289514E-4,0.0015478292,-0.3215712,0.048482586,9.757569,0,0,0,0,0,0,0,0,0,0,0,0,0,0,0,0,0,0,0,0,0
747,-1.6532843,-0.0048454665,0.03303628,0.0017976337,3.3289514E-4,-0.003778493,-0.35628715,0.04129998,9.783905,0,0,0,0,0,0,0,0,0,0,0,0,0,0,0,0,0,0,0,0,0
748,-1.653392,-0.0049242526,0.03309412,7.323693E-4,-7.323693E-4,4.825648E-4,-0.32995093,0.040102877,9.781511,0,0,0,0,0,0,0,0,0,0,0,0,0,0,0,0,0,0,0,0,0
749,-1.6535082,-0.004939944,0.033074748,-3.3289514E-4,-7.323693E-4,-0.0016479641,-0.3131915,0.05566519,9.745598,0,0,0,0,0,0,0,0,0,0,0,0,0,0,0,0,0,0,0,0,0
750,-1.6535922,-0.004966988,0.03301355,7.323693E-4,3.3289514E-4,-5.8269966E-4,-0.2940379,0.061650693,9.793482,0,0,0,0,0,0,0,0,0,0,0,0,0,0,0,0,0,0,0,0,0
751,-1.6538085,-0.004927778,0.03298321,-3.3289514E-4,0.0024634239,-0.0016479641,-0.307206,0.02932897,9.750386,0,0,0,0,0,0,0,0,0,0,0,0,0,0,0,0,0,0,0,0,0
752,-1.6536736,-0.0050467746,0.033190347,-3.3289514E-4,0.0024634239,-5.8269966E-4,-0.33354223,0.06284779,9.7803135,0,0,0,0,0,0,0,0,0,0,0,0,0,0,0,0,0,0,0,0,0
753,-1.6537755,-0.0050671655,0.033207145,-3.3289514E-4,3.3289514E-4,0.0015478292,-0.33234513,0.05925649,9.762358,0,0,0,0,0,0,0,0,0,0,0,0,0,0,0,0,0,0,0,0,0
754,-1.6539562,-0.00504792,0.033238225,7.323693E-4,-0.0017976337,-5.8269966E-4,-0.33952773,0.040102877,9.763555,0,0,0,0,0,0,0,0,0,0,0,0,0,0,0,0,0,0,0,0,0
755,-1.6541251,-0.005026873,0.03319964,3.1611722E-4,-9.821738E-4,6.657903E-4,-0.3048118,0.038905777,9.7324295,0,0,0,0,0,0,0,0,0,0,0,0,0,0,0,0,0,0,0,0,0
756,-1.6542747,-0.0050113676,0.033128805,3.1611722E-4,0.0011483551,-3.9947417E-4,-0.28805238,0.04129998,9.709685,0,0,0,0,0,0,0,0,0,0,0,0,0,0,0,0,0,0,0,0,0
757,-1.6547456,-0.0047228145,0.032956872,-0.0018144116,0.0022136194,6.657903E-4,-0.3048118,0.020949265,9.813833,0,0,0,0,0,0,0,0,0,0,0,0,0,0,0,0,0,0,0,0,0
758,-1.6548804,-0.004722366,0.032978207,3.1611722E-4,-9.821738E-4,6.657903E-4,-0.33354223,0.046088383,9.799467,0,0,0,0,0,0,0,0,0,0,0,0,0,0,0,0,0,0,0,0,0
759,-1.6549375,-0.0047620353,0.033029065,3.1611722E-4,8.309063E-5,6.657903E-4,-0.34551322,0.065242,9.722853,0,0,0,0,0,0,0,0,0,0,0,0,0,0,0,0,0,0,0,0,0
760,-1.6551697,-0.0047071795,0.033018738,-0.0018144116,-9.821738E-4,0.0017310547,-0.3179799,0.019752163,9.776723,0,0,0,0,0,0,0,0,0,0,0,0,0,0,0,0,0,0,0,0,0
761,-1.655278,-0.004585246,0.032984965,-7.491472E-4,8.309063E-5,-3.9947417E-4,-0.3000234,0.035314474,9.746795,0,0,0,0,0,0,0,0,0,0,0,0,0,0,0,0,0,0,0,0,0
762,-1.6554136,-0.004578046,0.032963756,-7.491472E-4,0.0011483551,6.657903E-4,-0.3119944,0.04129998,9.76954,0,0,0,0,0,0,0,0,0,0,0,0,0,0,0,0,0,0,0,0,0
763,-1.6555487,-0.0045756823,0.033007517,0.0013813816,0.0022136194,0.0017310547,-0.34431612,0.04369418,9.791088,0,0,0,0,0,0,0,0,0,0,0,0,0,0,0,0,0,0,0,0,0
764,-1.6555849,-0.0046197013,0.03303036,-0.0018144116,-9.821738E-4,-0.0014647386,-0.33473933,0.0664391,9.79827,0,0,0,0,0,0,0,0,0,0,0,0,0,0,0,0,0,0,0,0,0
765,-1.6557873,-0.0045823785,0.03308614,0.0017643442,-0.0020972393,-8.322378E-4,-0.35030162,0.026934769,9.775525,0,0,0,0,0,0,0,0,0,0,0,0,0,0,0,0,0,0,0,0,0
766,-1.6558523,-0.0044988357,0.033058893,6.9907977E-4,-0.0010319749,2.330266E-4,-0.3084031,0.02932897,9.793482,0,0,0,0,0,0,0,0,0,0,0,0,0,0,0,0,0,0,0,0,0
767,-1.6558454,-0.0045544836,0.032986734,-3.6618466E-4,0.0021638183,2.330266E-4,-0.28805238,0.0712275,9.77792,0,0,0,0,0,0,0,0,0,0,0,0,0,0,0,0,0,0,0,0,0
768,-1.6559616,-0.004555196,0.03300433,-3.6618466E-4,-0.0010319749,-8.322378E-4,-0.33114803,0.044891283,9.774328,0,0,0,0,0,0,0,0,0,0,0,0,0,0,0,0,0,0,0,0,0
769,-1.6560909,-0.004553623,0.033081822,-0.0014314491,-0.0010319749,2.330266E-4,-0.35987845,0.04369418,9.753978,0,0,0,0,0,0,0,0,0,0,0,0,0,0,0,0,0,0,0,0,0
770,-1.6561681,-0.004536226,0.032915577,-3.6618466E-4,-0.0031625037,-8.322378E-4,-0.3096002,0.05925649,9.805453,0,0,0,0,0,0,0,0,0,0,0,0,0,0,0,0,0,0,0,0,0
771,-1.6562736,-0.004534776,0.0328826,6.9907977E-4,-0.0010319749,2.330266E-4,-0.3060089,0.04369418,9.783905,0,0,0,0,0,0,0,0,0,0,0,0,0,0,0,0,0,0,0,0,0
772,-1.6563507,-0.004545673,0.03283613,0.0017643442,3.3289514E-5,0.001298291,-0.2988263,0.049679685,9.775525,0,0,0,0,0,0,0,0,0,0,0,0,0,0,0,0,0,0,0,0,0
773,-1.656502,-0.0045198216,0.032809574,0.0017643442,-0.0010319749,2.330266E-4,-0.307206,0.03172317,9.746795,0,0,0,0,0,0,0,0,0,0,0,0,0,0,0,0,0,0,0,0,0
774,-1.6565899,-0.0045309532,0.032852303,-0.0014314491,-0.0020972393,2.330266E-4,-0.34192193,0.049679685,9.7803135,0,0,0,0,0,0,0,0,0,0,0,0,0,0,0,0,0,0,0,0,0
775,-1.6566201,-0.004813853,0.032752935,-3.6618466E-4,-0.0010319749,-8.322378E-4,-0.33952773,0.0688333,9.787497,0,0,0,0,0,0,0,0,0,0,0,0,0,0,0,0,0,0,0,0,0
776,-1.6567453,-0.004792423,0.032720372,-8.1572623E-4,-0.0027798074,2.828277E-4,-0.3036147,0.036511578,9.751583,0,0,0,0,0,0,0,0,0,0,0,0,0,0,0,0,0,0,0,0,0
777,-1.6569244,-0.004741913,0.032677826,-8.1572623E-4,-6.492787E-4,-7.8243675E-4,-0.2988263,0.022146367,9.764751,0,0,0,0,0,0,0,0,0,0,0,0,0,0,0,0,0,0,0,0,0
778,-1.6569457,-0.004770668,0.032640196,-8.1572623E-4,4.1598576E-4,-7.8243675E-4,-0.3012205,0.060453594,9.77792,0,0,0,0,0,0,0,0,0,0,0,0,0,0,0,0,0,0,0,0,0
779,-1.656815,-0.004860089,0.032613803,-8.1572623E-4,0.0014812502,-0.0018477011,-0.34790742,0.076015905,9.77792,0,0,0,0,0,0,0,0,0,0,0,0,0,0,0,0,0,0,0,0,0
780,-1.6569281,-0.004854934,0.03272908,2.495382E-4,-6.492787E-4,0.0013480921,-0.37424365,0.044891283,9.746795,0,0,0,0,0,0,0,0,0,0,0,0,0,0,0,0,0,0,0,0,0
781,-1.6570573,-0.004830012,0.032724515,2.495382E-4,4.1598576E-4,2.828277E-4,-0.3179799,0.035314474,9.7803135,0,0,0,0,0,0,0,0,0,0,0,0,0,0,0,0,0,0,0,0,0
782,-1.6571052,-0.0048426143,0.03269007,-8.1572623E-4,-6.492787E-4,-0.0018477011,-0.3024176,0.05327099,9.751583,0,0,0,0,0,0,0,0,0,0,0,0,0,0,0,0,0,0,0,0,0
783,-1.6571645,-0.004849939,0.03267033,2.495382E-4,-6.492787E-4,2.828277E-4,-0.3096002,0.050876785,9.762358,0,0,0,0,0,0,0,0,0,0,0,0,0,0,0,0,0,0,0,0,0
784,-1.6574337,-0.00502108,0.032763902,-8.1572623E-4,0.0025465146,-0.0018477011,-0.33833063,0.04369418,9.758766,0,0,0,0,0,0,0,0,0,0,0,0,0,0,0,0,0,0,0,0,0
785,-1.6574605,-0.0050422517,0.03279319,2.495382E-4,0.0025465146,-7.8243675E-4,-0.33354223,0.05925649,9.740809,0,0,0,0,0,0,0,0,0,0,0,0,0,0,0,0,0,0,0,0,0
786,-1.6575892,-0.005011296,0.032818265,2.495382E-4,-6.492787E-4,2.828277E-4,-0.33234513,0.034117375,9.757569,0,0,0,0,0,0,0,0,0,0,0,0,0,0,0,0,0,0,0,0,0
787,-1.6576934,-0.004983008,0.03274389,6.823019E-4,-0.0018975022,-5.8269966E-4,-0.28565818,0.035314474,9.813833,0,0,0,0,0,0,0,0,0,0,0,0,0,0,0,0,0,0,0,0,0
788,-1.65758,-0.0047654617,0.032618906,-3.8296255E-4,-8.322378E-4,-0.0016479641,-0.3119944,0.038905777,9.7719345,0,0,0,0,0,0,0,0,0,0,0,0,0,0,0,0,0,0,0,0,0
789,-1.6576512,-0.004766958,0.032639705,6.823019E-4,2.330266E-4,0.0015478292,-0.32875383,0.047285482,9.763555,0,0,0,0,0,0,0,0,0,0,0,0,0,0,0,0,0,0,0,0,0
790,-1.6576722,-0.004793006,0.032660495,0.0017475663,2.330266E-4,0.0015478292,-0.32875383,0.05925649,9.757569,0,0,0,0,0,0,0,0,0,0,0,0,0,0,0,0,0,0,0,0,0
