nr,fusedX,fusedY,fusedZ,gyroX,gyroY,gyroZ,accX,accY,accZ,q,w,e,r,t,z,u,i,o,p,a,s,d,f,g,h,j,k,l,y
0,0.6741699,-0.9297032,-0.887248,-0.13270931,0.13504171,-0.077137925,4.536713,7.677606,3.5763388,0,0,0,0,0,0,0,0,0,0,0,0,0,0,0,0,0,0,0,0,0
1,0.68418145,-0.92801625,-0.8754114,-0.22538732,0.21706706,-0.080333725,4.403835,7.587824,3.7762547,0,0,0,0,0,0,0,0,0,0,0,0,0,0,0,0,0,0,0,0,0
2,0.69985026,-0.9247556,-0.8580805,-0.19129886,0.1680649,-0.09205163,4.433762,7.5770497,4.0827127,0,0,0,0,0,0,0,0,0,0,0,0,0,0,0,0,0,0,0,0,0
3,0.71013516,-0.92392933,-0.84807116,-0.13483983,0.09243113,-0.09844322,4.1883564,7.5842323,4.0372224,0,0,0,0,0,0,0,0,0,0,0,0,0,0,0,0,0,0,0,0,0
4,0.72218674,-0.9219715,-0.83743745,-0.1689283,0.08284375,-0.04411473,4.2530003,7.453748,4.1138372,0,0,0,0,0,0,0,0,0,0,0,0,0,0,0,0,0,0,0,0,0
5,0.7347502,-0.9185457,-0.8267218,-0.17318936,0.09562692,-0.060093697,4.3535566,7.402273,4.258686,0,0,0,0,0,0,0,0,0,0,0,0,0,0,0,0,0,0,0,0,0
6,0.74431854,-0.91674185,-0.8177614,-0.14868827,0.12971538,-0.06542002,4.195539,7.4465656,4.234744,0,0,0,0,0,0,0,0,0,0,0,0,0,0,0,0,0,0,0,0,0
7,0.75523055,-0.91395533,-0.8061329,-0.17638515,0.12119327,-0.03665788,4.09618,7.498041,4.2503066,0,0,0,0,0,0,0,0,0,0,0,0,0,0,0,0,0,0,0,0,0
8,0.76358104,-0.9104299,-0.79880273,-0.17851569,0.072191104,-0.008961004,4.3571477,7.482479,4.373608,0,0,0,0,0,0,0,0,0,0,0,0,0,0,0,0,0,0,0,0,0
9,0.7738884,-0.9068386,-0.7903136,-0.13697037,0.05195108,-0.04837579,4.2853217,7.426215,4.5232453,0,0,0,0,0,0,0,0,0,0,0,0,0,0,0,0,0,0,0,0,0
10,0.7810113,-0.90542746,-0.78558296,-0.07198924,0.0029489181,-0.03452735,4.1548376,7.475296,4.4897265,0,0,0,0,0,0,0,0,0,0,0,0,0,0,0,0,0,0,0,0,0
11,0.78584164,-0.9043011,-0.7827975,-0.08690294,-0.0013121394,-0.035592616,4.2338467,7.472902,4.325724,0,0,0,0,0,0,0,0,0,0,0,0,0,0,0,0,0,0,0,0,0
12,0.79373366,-0.9022866,-0.7763633,-0.13271171,0.050878894,-0.0462402,4.1165304,7.4226236,4.4298716,0,0,0,0,0,0,0,0,0,0,0,0,0,0,0,0,0,0,0,0,0
13,0.8018127,-0.89991933,-0.76993614,-0.13484223,0.048748363,-0.019608589,4.012383,7.438186,4.623802,0,0,0,0,0,0,0,0,0,0,0,0,0,0,0,0,0,0,0,0,0
14,0.80906934,-0.89674926,-0.76498383,-0.07838322,0.014659903,0.0059577576,4.21589,7.387908,4.699219,0,0,0,0,0,0,0,0,0,0,0,0,0,0,0,0,0,0,0,0,0
15,0.8129146,-0.895268,-0.7633133,-0.03683791,-0.0045148567,-0.015347531,4.2805333,7.399879,4.6740804,0,0,0,0,0,0,0,0,0,0,0,0,0,0,0,0,0,0,0,0,0
16,0.8168739,-0.8949463,-0.76159024,-0.014467356,-0.0034495925,-0.044109672,4.2577887,7.471705,4.659715,0,0,0,0,0,0,0,0,0,0,0,0,0,0,0,0,0,0,0,0,0
17,0.8210372,-0.8951648,-0.75880057,0.0025768746,0.033834662,-0.02706544,4.097377,7.4082584,4.6860514,0,0,0,0,0,0,0,0,0,0,0,0,0,0,0,0,0,0,0,0,0
18,0.8221094,-0.8951696,-0.7584454,0.024947427,-0.00771065,-0.005760151,4.2254667,7.355586,4.5819035,0,0,0,0,0,0,0,0,0,0,0,0,0,0,0,0,0,0,0,0,0
19,0.8223724,-0.89626324,-0.7589121,0.019621106,-0.008775915,-0.04197914,4.1285014,7.397485,4.4035354,0,0,0,0,0,0,0,0,0,0,0,0,0,0,0,0,0,0,0,0,0
20,0.82435715,-0.8967155,-0.7567986,-0.0027494475,0.039160985,-0.03665282,4.1189246,7.4788876,4.530428,0,0,0,0,0,0,0,0,0,0,0,0,0,0,0,0,0,0,0,0,0
21,0.8260221,-0.8970647,-0.75479895,-0.016597886,-0.0034495925,-0.048370726,4.191948,7.4405804,4.4717703,0,0,0,0,0,0,0,0,0,0,0,0,0,0,0,0,0,0,0,0,0
22,0.8290522,-0.8970571,-0.7519178,-0.062404256,0.040226247,-0.057958107,4.0806174,7.4645224,4.5196543,0,0,0,0,0,0,0,0,0,0,0,0,0,0,0,0,0,0,0,0,0
23,0.8337081,-0.89620805,-0.745709,-0.07625269,0.11586002,-0.0611539,4.238635,7.4788876,4.538808,0,0,0,0,0,0,0,0,0,0,0,0,0,0,0,0,0,0,0,0,0
24,0.84065217,-0.8954352,-0.7355241,-0.11566748,0.14888322,-0.108025536,4.1308956,7.471705,4.520851,0,0,0,0,0,0,0,0,0,0,0,0,0,0,0,0,0,0,0,0,0
25,0.8495231,-0.8948134,-0.7259005,-0.13164644,0.091358945,-0.13359188,3.8914757,7.3962874,4.642956,0,0,0,0,0,0,0,0,0,0,0,0,0,0,0,0,0,0,0,0,0
26,0.8588591,-0.8941211,-0.71855956,-0.09542745,-0.018363295,-0.08458972,3.8052843,7.3472066,4.797382,0,0,0,0,0,0,0,0,0,0,0,0,0,0,0,0,0,0,0,0,0
27,0.86333615,-0.8934798,-0.71592784,-0.07092637,0.01146411,-0.062219165,4.109348,7.2502413,4.3807907,0,0,0,0,0,0,0,0,0,0,0,0,0,0,0,0,0,0,0,0,0
28,0.87285703,-0.8913531,-0.70533836,-0.20941074,0.14462216,-0.12613504,4.0447044,7.4166384,4.696825,0,0,0,0,0,0,0,0,0,0,0,0,0,0,0,0,0,0,0,0,0
29,0.88195646,-0.88952094,-0.6966407,-0.2147336,0.01253976,-0.12933828,3.7609916,7.1341224,4.3424835,0,0,0,0,0,0,0,0,0,0,0,0,0,0,0,0,0,0,0,0,0
30,0.89544153,-0.88163364,-0.67985064,-0.48318025,0.33211908,-0.065422416,4.1751885,7.4932528,4.648941,0,0,0,0,0,0,0,0,0,0,0,0,0,0,0,0,0,0,0,0,0
31,0.9201419,-0.87062436,-0.6504243,-0.5843804,0.33424962,-0.2156247,3.896264,7.128137,4.6273932,0,0,0,0,0,0,0,0,0,0,0,0,0,0,0,0,0,0,0,0,0
32,0.94247305,-0.8600443,-0.6238074,-0.74097425,0.5590204,-0.2603658,3.7992988,6.8587894,4.7375264,0,0,0,0,0,0,0,0,0,0,0,0,0,0,0,0,0,0,0,0,0
33,0.98277456,-0.8418969,-0.5724722,-0.8592186,0.60589206,-0.32534695,3.2989106,6.997653,5.921459,0,0,0,0,0,0,0,0,0,0,0,0,0,0,0,0,0,0,0,0,0
34,1.0111785,-0.8301397,-0.54375654,-0.6046204,0.1520894,-0.29978058,2.9026704,7.079056,5.907094,0,0,0,0,0,0,0,0,0,0,0,0,0,0,0,0,0,0,0,0,0
35,1.0326773,-0.82150626,-0.5274183,-0.5715972,-0.005569735,-0.22521208,2.9996355,6.6840124,5.763442,0,0,0,0,0,0,0,0,0,0,0,0,0,0,0,0,0,0,0,0,0
36,1.0610168,-0.8072206,-0.51683676,-0.6088815,-0.40397865,-0.25717002,3.1432877,6.7199254,6.0782795,0,0,0,0,0,0,0,0,0,0,0,0,0,0,0,0,0,0,0,0,0
37,1.073462,-0.80134517,-0.51457924,-0.50874656,-0.12061829,-0.28593215,2.8380268,6.2530565,5.4378304,0,0,0,0,0,0,0,0,0,0,0,0,0,0,0,0,0,0,0,0,0
38,1.1082512,-0.77891845,-0.4822054,-0.9934419,0.46421188,-0.16662253,2.7422588,6.1979895,5.7299232,0,0,0,0,0,0,0,0,0,0,0,0,0,0,0,0,0,0,0,0,0
39,1.1353462,-0.7544582,-0.45238766,-1.1574926,0.5004309,-0.15596989,2.4621372,5.9801173,6.2303114,0,0,0,0,0,0,0,0,0,0,0,0,0,0,0,0,0,0,0,0,0
40,1.1618521,-0.72849774,-0.4254535,-1.1532316,0.27566007,-0.08885823,2.0311809,5.6018333,6.8144965,0,0,0,0,0,0,0,0,0,0,0,0,0,0,0,0,0,0,0,0,0
41,1.1915675,-0.6906492,-0.4038851,-1.1127515,0.1638073,0.07732302,2.5028386,4.881179,7.305308,0,0,0,0,0,0,0,0,0,0,0,0,0,0,0,0,0,0,0,0,0
42,1.2167611,-0.6583448,-0.39092824,-0.857088,-0.17920783,-0.17727518,3.1875803,5.81372,8.438962,0,0,0,0,0,0,0,0,0,0,0,0,0,0,0,0,0,0,0,0,0
43,1.2328764,-0.6405979,-0.38955048,-1.1212736,-0.16429414,-0.081401385,2.5986066,5.345654,7.053917,0,0,0,0,0,0,0,0,0,0,0,0,0,0,0,0,0,0,0,0,0
44,1.259325,-0.60208946,-0.3635278,-1.2501706,0.8498376,0.054952465,2.2179286,4.706402,8.233061,0,0,0,0,0,0,0,0,0,0,0,0,0,0,0,0,0,0,0,0,0
45,1.2767228,-0.56982446,-0.33800092,-1.1212736,0.5835215,0.14549994,2.1640592,4.2598834,8.636484,0,0,0,0,0,0,0,0,0,0,0,0,0,0,0,0,0,0,0,0,0
46,1.2841663,-0.53611857,-0.3192709,-0.8123493,0.50681555,0.37879792,2.25863,4.3676224,8.812458,0,0,0,0,0,0,0,0,0,0,0,0,0,0,0,0,0,0,0,0,0
47,1.2777659,-0.5121179,-0.3090213,-0.42352784,0.24476048,0.42886534,2.532766,4.484938,8.5862055,0,0,0,0,0,0,0,0,0,0,0,0,0,0,0,0,0,0,0,0,0
48,1.2701787,-0.5014709,-0.31112874,-0.3020877,-0.10145046,0.40756005,2.4633343,4.812944,8.526351,0,0,0,0,0,0,0,0,0,0,0,0,0,0,0,0,0,0,0,0,0
49,1.2575533,-0.48815125,-0.32659277,-0.11673167,-0.40398556,0.57267606,1.5128362,4.0982747,7.3950906,0,0,0,0,0,0,0,0,0,0,0,0,0,0,0,0,0,0,0,0,0
50,1.2266084,-0.48401073,-0.35979515,0.2763509,-0.8343524,0.9114301,3.6053684,4.4274774,8.624513,0,0,0,0,0,0,0,0,0,0,0,0,0,0,0,0,0,0,0,0,0
51,1.1802084,-0.47415087,-0.41765043,-0.41180992,-2.0274487,0.7196825,5.008371,4.778228,6.2434793,0,0,0,0,0,0,0,0,0,0,0,0,0,0,0,0,0,0,0,0,0
52,1.1935271,-0.4452165,-0.43816543,-0.9998359,0.11479822,-0.5618306,3.7502177,3.8349125,7.079056,0,0,0,0,0,0,0,0,0,0,0,0,0,0,0,0,0,0,0,0,0
53,1.2152861,-0.44139627,-0.41303477,0.073950656,0.561144,-0.38393143,4.0530844,5.1301756,10.948086,0,0,0,0,0,0,0,0,0,0,0,0,0,0,0,0,0,0,0,0,0
54,1.2123007,-0.45029214,-0.40742627,0.15810655,0.0135981,0.026195385,3.4952352,3.6780925,7.2490444,0,0,0,0,0,0,0,0,0,0,0,0,0,0,0,0,0,0,0,0,0
55,1.2139568,-0.44825113,-0.40280566,-0.39263517,0.2586089,-0.052634183,2.9864674,4.0743327,7.744644,0,0,0,0,0,0,0,0,0,0,0,0,0,0,0,0,0,0,0,0,0
56,1.2215109,-0.43575162,-0.39125624,-0.09436113,0.36193958,0.17639767,4.227861,3.8851907,9.924564,0,0,0,0,0,0,0,0,0,0,0,0,0,0,0,0,0,0,0,0,0
57,1.2131652,-0.44883922,-0.36565626,0.98475176,0.90522444,0.22113878,0.9130887,3.517681,9.329605,0,0,0,0,0,0,0,0,0,0,0,0,0,0,0,0,0,0,0,0,0
58,1.18415,-0.4701448,-0.34707785,1.1232361,1.6434526,0.8581669,2.4657285,2.9191303,6.651691,0,0,0,0,0,0,0,0,0,0,0,0,0,0,0,0,0,0,0,0,0
59,1.1578718,-0.47995684,-0.31396347,0.49259958,1.9364004,0.90077746,2.1245546,3.6541502,8.436568,0,0,0,0,0,0,0,0,0,0,0,0,0,0,0,0,0,0,0,0,0
60,1.1316476,-0.47406518,-0.28227404,-0.19023491,0.58031875,0.64617926,3.1169512,3.518878,8.80767,0,0,0,0,0,0,0,0,0,0,0,0,0,0,0,0,0,0,0,0,0
61,1.1260597,-0.45967507,-0.28159913,-0.49383527,0.17977935,0.3127515,2.434604,3.269881,7.9756846,0,0,0,0,0,0,0,0,0,0,0,0,0,0,0,0,0,0,0,0,0
62,1.1330757,-0.4445005,-0.24710824,-0.14549035,1.0863298,-0.10057881,1.2195464,3.5284548,8.199542,0,0,0,0,0,0,0,0,0,0,0,0,0,0,0,0,0,0,0,0,0
63,1.1340979,-0.45219687,-0.21582927,0.27741963,1.196052,-0.026010295,0.9250597,5.026028,8.134899,0,0,0,0,0,0,0,0,0,0,0,0,0,0,0,0,0,0,0,0,0
64,1.1243073,-0.45362166,-0.19024172,-0.19875358,0.7560978,0.63658416,0.50248307,5.4964886,8.764574,0,0,0,0,0,0,0,0,0,0,0,0,0,0,0,0,0,0,0,0,0
65,1.0892475,-0.417321,-0.19916269,-1.5633574,0.13930969,1.381204,0.5814917,3.141791,5.465364,0,0,0,0,0,0,0,0,0,0,0,0,0,0,0,0,0,0,0,0,0
66,1.0630559,-0.3643626,-0.19246896,-2.1162295,0.9702159,1.4387283,0.82809454,3.401562,7.855974,0,0,0,0,0,0,0,0,0,0,0,0,0,0,0,0,0,0,0,0,0
67,1.0205259,-0.29056588,-0.18394145,-1.2469738,-0.09717901,1.4089009,4.3248262,3.7140055,12.700642,0,0,0,0,0,0,0,0,0,0,0,0,0,0,0,0,0,0,0,0,0
68,1.0105047,-0.27066502,-0.20608298,0.508582,-0.39758357,0.27865532,2.672827,-0.05686229,10.211869,0,0,0,0,0,0,0,0,0,0,0,0,0,0,0,0,0,0,0,0,0
69,1.0046023,-0.28364226,-0.21423098,0.6438706,-0.051372644,0.13058357,2.3256676,1.8249803,8.604162,0,0,0,0,0,0,0,0,0,0,0,0,0,0,0,0,0,0,0,0,0
70,0.9913841,-0.2994097,-0.21299657,0.68967694,0.2287919,0.47040293,2.6752212,2.0081367,10.469246,0,0,0,0,0,0,0,0,0,0,0,0,0,0,0,0,0,0,0,0,0
71,0.98121876,-0.31446573,-0.21484628,0.9666457,0.047696948,0.29889536,2.9481602,1.4993688,9.357139,0,0,0,0,0,0,0,0,0,0,0,0,0,0,0,0,0,0,0,0,0
72,0.9743086,-0.332462,-0.22265449,0.66943693,-0.34218982,-0.13573253,2.4860792,2.32058,8.437765,0,0,0,0,0,0,0,0,0,0,0,0,0,0,0,0,0,0,0,0,0
73,0.97650015,-0.3474891,-0.2355183,0.35411867,-0.36242986,-0.2656948,1.8587984,3.3680432,8.92738,0,0,0,0,0,0,0,0,0,0,0,0,0,0,0,0,0,0,0,0,0
74,0.97324854,-0.3666688,-0.23862243,1.0348226,-0.091852695,-0.033467147,1.522413,3.6709096,8.127716,0,0,0,0,0,0,0,0,0,0,0,0,0,0,0,0,0,0,0,0,0
75,0.96057564,-0.39783543,-0.23608993,1.3000735,0.38538578,0.06666771,1.7163434,3.9893386,8.114548,0,0,0,0,0,0,0,0,0,0,0,0,0,0,0,0,0,0,0,0,0
76,0.94457287,-0.44074276,-0.23613179,0.9613194,-0.1813349,0.025122397,1.5690999,3.7606924,8.652046,0,0,0,0,0,0,0,0,0,0,0,0,0,0,0,0,0,0,0,0,0
77,0.9388635,-0.46333554,-0.24272995,0.7695718,-0.30597085,0.019796075,1.0495582,5.0703206,8.241441,0,0,0,0,0,0,0,0,0,0,0,0,0,0,0,0,0,0,0,0,0
78,0.92535704,-0.48106822,-0.2548966,0.8079213,-0.3038403,0.23071843,1.7366941,4.589086,7.8906903,0,0,0,0,0,0,0,0,0,0,0,0,0,0,0,0,0,0,0,0,0
79,0.9062336,-0.51095784,-0.26256242,0.98368543,0.3203908,0.1753348,1.6145898,4.9458222,7.8188643,0,0,0,0,0,0,0,0,0,0,0,0,0,0,0,0,0,0,0,0,0
80,0.8930255,-0.53503454,-0.25611737,1.1786288,0.34276134,0.33086342,1.5750854,5.5743003,8.565855,0,0,0,0,0,0,0,0,0,0,0,0,0,0,0,0,0,0,0,0,0
81,0.86098045,-0.5683002,-0.26424396,1.0529276,0.15314429,0.36814767,2.5734675,4.0743327,6.693589,0,0,0,0,0,0,0,0,0,0,0,0,0,0,0,0,0,0,0,0,0
82,0.84351134,-0.5871088,-0.26859537,0.7834157,0.11372949,0.013414608,2.578256,4.5938745,7.114969,0,0,0,0,0,0,0,0,0,0,0,0,0,0,0,0,0,0,0,0,0
83,0.83063126,-0.6114612,-0.27140492,0.71310824,0.046617836,-0.06861075,2.5507226,4.5352163,6.5846534,0,0,0,0,0,0,0,0,0,0,0,0,0,0,0,0,0,0,0,0,0
84,0.8223627,-0.6286154,-0.2750153,0.2561098,-0.0961276,-0.059023373,2.2035635,5.5300074,6.2793927,0,0,0,0,0,0,0,0,0,0,0,0,0,0,0,0,0,0,0,0,0
85,0.81686616,-0.6262893,-0.28288394,-0.17745282,-0.32409418,0.02832831,2.74585,5.039196,7.08983,0,0,0,0,0,0,0,0,0,0,0,0,0,0,0,0,0,0,0,0,0
86,0.8231572,-0.61876065,-0.29083073,-0.21047601,-0.32835525,-0.27846783,2.6321254,4.9146976,7.5590935,0,0,0,0,0,0,0,0,0,0,0,0,0,0,0,0,0,0,0,0,0
87,0.8352269,-0.6186176,-0.28835818,-0.001684183,-0.119563416,-0.39564693,2.2598271,5.6545057,8.224682,0,0,0,0,0,0,0,0,0,0,0,0,0,0,0,0,0,0,0,0,0
88,0.8484923,-0.6272023,-0.28397268,0.25504455,-0.18667507,-0.32001317,1.7582419,5.7383027,7.744644,0,0,0,0,0,0,0,0,0,0,0,0,0,0,0,0,0,0,0,0,0
89,0.85859275,-0.6357814,-0.2836567,0.23906557,-0.17602243,-0.32640475,2.0239983,5.355231,7.9996266,0,0,0,0,0,0,0,0,0,0,0,0,0,0,0,0,0,0,0,0,0
90,0.867109,-0.6469775,-0.2794425,0.33280885,-0.03434226,-0.40416905,1.5391724,5.9849057,7.177218,0,0,0,0,0,0,0,0,0,0,0,0,0,0,0,0,0,0,0,0,0
91,0.8740723,-0.6621595,-0.2723216,0.38607207,0.023182018,-0.20602986,1.4757261,6.0782795,7.045537,0,0,0,0,0,0,0,0,0,0,0,0,0,0,0,0,0,0,0,0,0
92,0.8693634,-0.67246336,-0.2741994,0.2145645,-0.14299923,-0.08458972,1.8599955,5.799355,6.0746884,0,0,0,0,0,0,0,0,0,0,0,0,0,0,0,0,0,0,0,0,0
93,0.8703629,-0.6725674,-0.2760009,-0.18171386,-0.09506233,-0.035587557,1.6445173,6.199187,6.8982935,0,0,0,0,0,0,0,0,0,0,0,0,0,0,0,0,0,0,0,0,0
94,0.87030953,-0.66685337,-0.27773833,-0.18171386,-0.059908606,0.089048386,1.9820998,5.6102133,7.3986816,0,0,0,0,0,0,0,0,0,0,0,0,0,0,0,0,0,0,0,0,0
95,0.86999273,-0.66232073,-0.27762437,-0.019793678,0.10094632,-0.0046948865,2.045546,5.6964045,7.417835,0,0,0,0,0,0,0,0,0,0,0,0,0,0,0,0,0,0,0,0,0
96,0.87129563,-0.6634898,-0.27135083,0.073946394,0.1829613,-0.007883223,1.9210476,5.855619,7.650073,0,0,0,0,0,0,0,0,0,0,0,0,0,0,0,0,0,0,0,0,0
97,0.8712757,-0.66401,-0.26962635,0.02707476,0.023171632,0.023009446,2.033575,5.623381,7.543531,0,0,0,0,0,0,0,0,0,0,0,0,0,0,0,0,0,0,0,0,0
98,0.8739745,-0.662053,-0.27069414,-0.058146395,-0.10146431,-0.039841156,2.0383635,5.6485205,7.7590094,0,0,0,0,0,0,0,0,0,0,0,0,0,0,0,0,0,0,0,0,0
99,0.8767918,-0.66235393,-0.27125815,0.08353378,-0.03009159,-0.074994884,1.9270331,5.7347116,7.425018,0,0,0,0,0,0,0,0,0,0,0,0,0,0,0,0,0,0,0,0,0
100,0.87857056,-0.66728306,-0.2680986,0.16023281,0.099870674,-0.056885388,1.7857752,5.8771667,7.2310877,0,0,0,0,0,0,0,0,0,0,0,0,0,0,0,0,0,0,0,0,0
101,0.8784308,-0.6708523,-0.26627168,0.08459904,-2.6418557E-4,-0.039841156,1.85401,5.787384,7.0766616,0,0,0,0,0,0,0,0,0,0,0,0,0,0,0,0,0,0,0,0,0
102,0.8782279,-0.67293316,-0.26684892,4.4315E-4,-0.062049523,-0.06327698,1.9090766,5.939416,6.8851256,0,0,0,0,0,0,0,0,0,0,0,0,0,0,0,0,0,0,0,0,0
103,0.87976533,-0.67287475,-0.2662929,4.4315E-4,0.0039968723,-0.030253775,1.8743607,5.8999114,7.268198,0,0,0,0,0,0,0,0,0,0,0,0,0,0,0,0,0,0,0,0,0
104,0.8804084,-0.6741523,-0.2642399,0.06755481,0.099870674,-0.036645364,1.85401,5.835268,7.265804,0,0,0,0,0,0,0,0,0,0,0,0,0,0,0,0,0,0,0,0,0
105,0.882878,-0.6758269,-0.25983483,0.06009796,0.08495697,-0.032384306,1.7510593,5.81372,7.545925,0,0,0,0,0,0,0,0,0,0,0,0,0,0,0,0,0,0,0,0,0
106,0.8847869,-0.6767538,-0.2580836,0.050510578,0.0029316077,-0.062211707,1.8516158,5.858013,7.5171947,0,0,0,0,0,0,0,0,0,0,0,0,0,0,0,0,0,0,0,0,0
107,0.88796306,-0.6787725,-0.256952,0.06116322,-0.04287476,-0.073929615,1.7989433,5.881955,7.426215,0,0,0,0,0,0,0,0,0,0,0,0,0,0,0,0,0,0,0,0,0
108,0.88896793,-0.6814382,-0.2581519,0.06968534,-0.08335481,-0.07179909,1.9342157,5.86759,7.0994067,0,0,0,0,0,0,0,0,0,0,0,0,0,0,0,0,0,0,0,0,0
109,0.8904692,-0.68333924,-0.25844803,0.035596877,-0.07696322,-0.09310438,1.723526,6.0387754,7.1245456,0,0,0,0,0,0,0,0,0,0,0,0,0,0,0,0,0,0,0,0,0
110,0.89376855,-0.68433297,-0.2578713,0.007900001,-0.052462142,-0.06860329,1.6612767,5.93343,7.257424,0,0,0,0,0,0,0,0,0,0,0,0,0,0,0,0,0,0,0,0,0
111,0.8960095,-0.68517643,-0.25758332,0.062228486,-0.07270217,-0.04303695,1.6313492,5.9801173,7.3005195,0,0,0,0,0,0,0,0,0,0,0,0,0,0,0,0,0,0,0,0,0
112,0.8957553,-0.687652,-0.2600052,0.07394294,-0.10680128,-0.03770317,1.8743607,5.9956794,7.150882,0,0,0,0,0,0,0,0,0,0,0,0,0,0,0,0,0,0,0,0,0
113,0.89444506,-0.68949604,-0.26229042,0.057963967,-0.07271282,-0.034507375,1.9413983,5.9489927,6.9820905,0,0,0,0,0,0,0,0,0,0,0,0,0,0,0,0,0,0,0,0,0
114,0.89418054,-0.69076514,-0.26281795,0.043050267,0.019965187,-0.029181054,1.9234418,5.883152,7.153276,0,0,0,0,0,0,0,0,0,0,0,0,0,0,0,0,0,0,0,0,0
115,0.894977,-0.69212407,-0.26147985,0.048376586,0.008247277,-0.031311583,1.8276737,5.969343,7.305308,0,0,0,0,0,0,0,0,0,0,0,0,0,0,0,0,0,0,0,0,0
116,0.8958424,-0.69315225,-0.26116803,0.054768175,-0.045015946,-0.0398337,1.7785926,5.9944825,7.319673,0,0,0,0,0,0,0,0,0,0,0,0,0,0,0,0,0,0,0,0,0
117,0.89628476,-0.6951717,-0.26210093,0.06115976,-0.059929647,-0.024919998,1.7582419,6.0363812,7.2047515,0,0,0,0,0,0,0,0,0,0,0,0,0,0,0,0,0,0,0,0,0
118,0.8954536,-0.6965841,-0.26347518,0.060094494,-0.052472796,-0.013202088,1.865981,6.025607,7.114969,0,0,0,0,0,0,0,0,0,0,0,0,0,0,0,0,0,0,0,0,0
119,0.89446515,-0.698776,-0.26477814,0.0750082,-0.042885415,-0.03237685,1.8827404,5.9873,7.00723,0,0,0,0,0,0,0,0,0,0,0,0,0,0,0,0,0,0,0,0,0
120,0.8933413,-0.70093,-0.26483855,0.050507117,-0.011992747,-0.036637906,1.8228853,6.154894,6.9006877,0,0,0,0,0,0,0,0,0,0,0,0,0,0,0,0,0,0,0,0,0
121,0.89353096,-0.7014549,-0.26490253,0.010027068,-0.032232773,-4.1891524E-4,1.8371009,6.0003185,7.149984,0,0,0,0,0,0,0,0,0,0,0,0,0,0,0,0,0,0,0,0,0
122,0.8942071,-0.70134187,-0.2656657,0.008961803,-0.046081208,-0.022789469,1.850269,6.020669,7.196671,0,0,0,0,0,0,0,0,0,0,0,0,0,0,0,0,0,0,0,0,0
123,0.8952147,-0.7016471,-0.2657068,0.04411553,-0.023710655,-0.024919998,1.8562545,6.056582,7.2673,0,0,0,0,0,0,0,0,0,0,0,0,0,0,0,0,0,0,0,0,0
124,0.8960857,-0.7037258,-0.26577967,0.113357715,-0.00560116,-0.03024632,1.9125183,5.9320836,7.384616,0,0,0,0,0,0,0,0,0,0,0,0,0,0,0,0,0,0,0,0,0
125,0.89567745,-0.7066806,-0.26623806,0.11655351,-0.04821174,-0.054747403,1.9723732,6.0374284,7.140407,0,0,0,0,0,0,0,0,0,0,0,0,0,0,0,0,0,0,0,0,0
126,0.8966783,-0.7099264,-0.26724038,0.06648608,-0.08975705,-0.072856896,1.9113212,6.1451674,7.0721726,0,0,0,0,0,0,0,0,0,0,0,0,0,0,0,0,0,0,0,0,0
127,0.8980957,-0.7125528,-0.26875034,0.09311769,-0.084430724,-0.05900846,1.8430864,6.076933,7.032668,0,0,0,0,0,0,0,0,0,0,0,0,0,0,0,0,0,0,0,0,0
128,0.89709884,-0.7153654,-0.27007315,0.09418296,-0.05886438,-0.06646531,1.9436429,6.118831,6.7872624,0,0,0,0,0,0,0,0,0,0,0,0,0,0,0,0,0,0,0,0,0
129,0.8982078,-0.71853036,-0.26968107,0.08353271,-0.03435611,-0.077123016,1.8418893,6.1679125,6.9392943,0,0,0,0,0,0,0,0,0,0,0,0,0,0,0,0,0,0,0,0,0
130,0.89899725,-0.7209947,-0.2691577,0.06542321,-0.047139283,-0.08031881,1.8167502,6.23495,6.875848,0,0,0,0,0,0,0,0,0,0,0,0,0,0,0,0,0,0,0,0,0
131,0.9007902,-0.7225326,-0.26869833,0.02813896,-0.04820455,-0.05901352,1.8095676,6.291214,7.0338655,0,0,0,0,0,0,0,0,0,0,0,0,0,0,0,0,0,0,0,0,0
132,0.9019236,-0.7233498,-0.26873627,0.04518319,-0.042878225,-0.039838757,1.7820343,6.2145996,7.054216,0,0,0,0,0,0,0,0,0,0,0,0,0,0,0,0,0,0,0,0,0
133,0.90288985,-0.72504586,-0.2688457,0.06435795,-0.021572936,-0.036642965,1.826327,6.195446,7.0278797,0,0,0,0,0,0,0,0,0,0,0,0,0,0,0,0,0,0,0,0,0
134,0.9031161,-0.72698545,-0.26911902,0.050509512,-0.039682433,-0.029186115,1.8347067,6.211008,6.9369,0,0,0,0,0,0,0,0,0,0,0,0,0,0,0,0,0,0,0,0,0
135,0.9029025,-0.727848,-0.27011716,0.023877902,-0.07270563,-0.020663999,1.8394951,6.303185,6.874651,0,0,0,0,0,0,0,0,0,0,0,0,0,0,0,0,0,0,0,0,0
136,0.90262556,-0.72844326,-0.27155608,0.024943167,-0.033290844,-0.008946091,1.8586487,6.2636805,6.9201407,0,0,0,0,0,0,0,0,0,0,0,0,0,0,0,0,0,0,0,0,0
137,0.9014894,-0.72933877,-0.27196324,0.050509512,0.0050586746,-0.004685033,1.8873792,6.231359,6.8471174,0,0,0,0,0,0,0,0,0,0,0,0,0,0,0,0,0,0,0,0,0
138,0.90067387,-0.73037094,-0.27180508,0.041987397,-0.0023981766,0.0059676114,1.8754082,6.2385416,6.9764047,0,0,0,0,0,0,0,0,0,0,0,0,0,0,0,0,0,0,0,0,0
139,0.9004658,-0.7309131,-0.2721469,0.04518319,-0.021572936,-0.01107662,1.8550574,6.2122054,6.996755,0,0,0,0,0,0,0,0,0,0,0,0,0,0,0,0,0,0,0,0,0
140,0.90040994,-0.7323775,-0.27276456,0.059031628,-0.020507671,-0.020663999,1.9496284,6.279243,7.042245,0,0,0,0,0,0,0,0,0,0,0,0,0,0,0,0,0,0,0,0,0
141,0.9004825,-0.7340837,-0.2738562,0.06755374,-0.052465606,-0.022794528,1.9292777,6.2026286,6.9536595,0,0,0,0,0,0,0,0,0,0,0,0,0,0,0,0,0,0,0,0,0
142,0.9001711,-0.7353442,-0.27497914,0.036661074,-0.045008752,-0.023859793,1.9627964,6.2756515,6.8734536,0,0,0,0,0,0,0,0,0,0,0,0,0,0,0,0,0,0,0,0,0
143,0.90146226,-0.736429,-0.27563274,0.082467444,-0.031160315,-0.032381907,1.9711761,6.1535473,7.0937204,0,0,0,0,0,0,0,0,0,0,0,0,0,0,0,0,0,0,0,0,0
144,0.90176815,-0.7394919,-0.27596223,0.097381145,-0.05885719,-0.070731424,1.8478748,6.4300776,6.844723,0,0,0,0,0,0,0,0,0,0,0,0,0,0,0,0,0,0,0,0,0
145,0.90323925,-0.74197406,-0.27694482,0.06222742,-0.09507618,-0.021729264,1.7353473,6.390573,6.9189434,0,0,0,0,0,0,0,0,0,0,0,0,0,0,0,0,0,0,0,0,0
146,0.9017839,-0.74375165,-0.27927062,0.06861555,-0.06952049,-0.0057428405,1.838298,6.3857846,6.678326,0,0,0,0,0,0,0,0,0,0,0,0,0,0,0,0,0,0,0,0,0
147,0.90052533,-0.7461769,-0.2799801,0.11122613,0.042332277,0.01130139,1.8227357,6.366631,6.8471174,0,0,0,0,0,0,0,0,0,0,0,0,0,0,0,0,0,0,0,0,0
148,0.89706993,-0.750658,-0.2793585,0.1538367,0.061507035,0.044324588,1.7245734,6.4623995,6.732196,0,0,0,0,0,0,0,0,0,0,0,0,0,0,0,0,0,0,0,0,0
149,0.8939786,-0.75199884,-0.28199387,0.04731026,-0.110000536,0.08373937,1.8742111,6.3355064,6.8698626,0,0,0,0,0,0,0,0,0,0,0,0,0,0,0,0,0,0,0,0,0
150,0.8894637,-0.7505742,-0.2912955,-0.06347724,-0.27937758,0.06349935,2.0370166,6.6910458,6.7956424,0,0,0,0,0,0,0,0,0,0,0,0,0,0,0,0,0,0,0,0,0
151,0.8899686,-0.7474848,-0.29754427,-0.09650044,-0.26339862,0.05178144,1.8718169,6.4743705,6.9835873,0,0,0,0,0,0,0,0,0,0,0,0,0,0,0,0,0,0,0,0,0
152,0.88599426,-0.7459495,-0.30575776,0.032396555,-0.11532686,0.026215093,2.280028,6.351069,6.594529,0,0,0,0,0,0,0,0,0,0,0,0,0,0,0,0,0,0,0,0,0
153,0.8847893,-0.7488461,-0.30331868,0.11335665,0.18614298,-0.04835342,2.0070891,6.48275,6.778883,0,0,0,0,0,0,0,0,0,0,0,0,0,0,0,0,0,0,0,0,0
154,0.8868141,-0.7524107,-0.29653123,0.18472937,0.20531774,-0.046222888,1.7628807,6.4647937,7.1092825,0,0,0,0,0,0,0,0,0,0,0,0,0,0,0,0,0,0,0,0,0
155,0.88637024,-0.75799775,-0.29350418,0.12827036,-0.0013435647,-0.035570245,1.8789995,6.5497875,6.752547,0,0,0,0,0,0,0,0,0,0,0,0,0,0,0,0,0,0,0,0,0
156,0.8871166,-0.7584914,-0.29529235,-0.022997195,-0.15154585,0.005975068,1.873014,6.553379,6.841132,0,0,0,0,0,0,0,0,0,0,0,0,0,0,0,0,0,0,0,0,0
157,0.883799,-0.75753963,-0.3014833,-0.0038224352,-0.11532686,0.077347785,2.0729299,6.4863415,6.498761,0,0,0,0,0,0,0,0,0,0,0,0,0,0,0,0,0,0,0,0,0
158,0.87964386,-0.7565804,-0.30490837,0.036657613,0.032744896,0.06456461,2.3183355,6.2517095,6.662764,0,0,0,0,0,0,0,0,0,0,0,0,0,0,0,0,0,0,0,0,0
159,0.8753981,-0.7551946,-0.3070068,-0.15508999,-0.107870005,0.023019299,2.26686,6.3139586,6.3000426,0,0,0,0,0,0,0,0,0,0,0,0,0,0,0,0,0,0,0,0,0
160,0.880089,-0.7412752,-0.31333703,-0.52154094,-0.34648925,0.037933,2.254889,6.2145996,6.930915,0,0,0,0,0,0,0,0,0,0,0,0,0,0,0,0,0,0,0,0,0
161,0.8865461,-0.7276829,-0.31986862,-0.38092604,-0.2878997,-0.018526014,2.6487353,5.7237883,7.1308303,0,0,0,0,0,0,0,0,0,0,0,0,0,0,0,0,0,0,0,0,0
162,0.89299905,-0.7234004,-0.31963778,0.11228926,0.086001195,-0.10906843,2.6619034,5.878214,7.2505407,0,0,0,0,0,0,0,0,0,0,0,0,0,0,0,0,0,0,0,0,0
163,0.89263356,-0.73198766,-0.31263706,0.35836533,0.32994676,-0.17831062,2.3605332,6.21849,6.510882,0,0,0,0,0,0,0,0,0,0,0,0,0,0,0,0,0,0,0,0,0
164,0.89641917,-0.7425823,-0.29798353,0.2156199,0.38107944,-0.17511483,2.1713912,6.289119,6.8029747,0,0,0,0,0,0,0,0,0,0,0,0,0,0,0,0,0,0,0,0,0
165,0.9018232,-0.74584156,-0.28719753,0.056895506,0.2415298,-0.2507486,2.3377883,6.052093,6.877195,0,0,0,0,0,0,0,0,0,0,0,0,0,0,0,0,0,0,0,0,0
166,0.91539353,-0.7516759,-0.26779976,0.18685776,0.48867115,-0.47658464,2.1989245,6.0089974,6.488137,0,0,0,0,0,0,0,0,0,0,0,0,0,0,0,0,0,0,0,0,0
167,0.9347016,-0.76758915,-0.22866869,0.37114853,0.8881453,-0.58843744,1.6662147,6.4507275,6.0583777,0,0,0,0,0,0,0,0,0,0,0,0,0,0,0,0,0,0,0,0,0
168,0.955554,-0.7783236,-0.19093826,0.121876635,0.7922715,-0.72798705,1.0784383,6.587197,6.368427,0,0,0,0,0,0,0,0,0,0,0,0,0,0,0,0,0,0,0,0,0
169,0.9880648,-0.77859855,-0.15052848,-0.29464176,0.23407295,-0.7120081,0.9886557,6.552481,6.212804,0,0,0,0,0,0,0,0,0,0,0,0,0,0,0,0,0,0,0,0,0
170,1.0117741,-0.76732016,-0.13262849,-0.69198537,0.02954218,-0.7152039,1.2256817,5.9886465,5.980566,0,0,0,0,0,0,0,0,0,0,0,0,0,0,0,0,0,0,0,0,0
171,1.0522678,-0.7487673,-0.09486178,-0.53645676,0.57495755,-0.7993598,0.39249945,6.406435,7.0376062,0,0,0,0,0,0,0,0,0,0,0,0,0,0,0,0,0,0,0,0,0
172,1.0869814,-0.74143714,-0.04718197,-0.08158887,0.7592483,-0.5053468,-0.69087684,7.259968,8.290971,0,0,0,0,0,0,0,0,0,0,0,0,0,0,0,0,0,0,0,0,0
173,1.0974852,-0.7435463,-0.027673002,0.11441979,0.3224899,-0.04621783,-0.44427404,6.681768,7.5727105,0,0,0,0,0,0,0,0,0,0,0,0,0,0,0,0,0,0,0,0,0
174,1.1005266,-0.7420975,-0.023119926,-0.06241411,0.07747908,0.017698037,-0.008529344,5.9635077,7.4601827,0,0,0,0,0,0,0,0,0,0,0,0,0,0,0,0,0,0,0,0,0
175,1.1069912,-0.7411106,-0.018230345,0.13039875,0.15843917,-0.09735052,-0.28146833,6.4028435,7.965359,0,0,0,0,0,0,0,0,0,0,0,0,0,0,0,0,0,0,0,0,0
176,1.1124549,-0.750981,-0.008037536,0.3828664,0.19785395,-0.02491254,-0.43709144,6.7332435,7.5643306,0,0,0,0,0,0,0,0,0,0,0,0,0,0,0,0,0,0,0,0,0
177,1.1125332,-0.75984377,-0.005360303,0.37114853,-0.00880734,0.123159215,-0.3820248,6.750003,7.6816463,0,0,0,0,0,0,0,0,0,0,0,0,0,0,0,0,0,0,0,0,0
178,1.1055125,-0.7694173,-0.01909946,0.26781785,-0.4476963,0.20411931,-0.0935235,6.396858,7.329699,0,0,0,0,0,0,0,0,0,0,0,0,0,0,0,0,0,0,0,0,0
179,1.0954838,-0.7769186,-0.041676708,0.24117294,-0.4807613,0.13916801,0.27039516,6.526145,6.8628297,0,0,0,0,0,0,0,0,0,0,0,0,0,0,0,0,0,0,0,0,0
180,1.0877987,-0.7850987,-0.05190755,0.3796573,-0.15692091,0.15088592,0.20694882,6.7488055,6.656928,0,0,0,0,0,0,0,0,0,0,0,0,0,0,0,0,0,0,0,0,0
181,1.0747056,-0.7980105,-0.060974576,0.43611634,0.0018034927,0.19775756,0.5541081,6.5668464,6.738331,0,0,0,0,0,0,0,0,0,0,0,0,0,0,0,0,0,0,0,0,0
182,1.0650331,-0.80794567,-0.06735624,0.3732657,-0.10259242,0.06992582,0.7947253,6.289119,6.510882,0,0,0,0,0,0,0,0,0,0,0,0,0,0,0,0,0,0,0,0,0
183,1.0618801,-0.8164015,-0.07700335,0.11760227,-0.439216,-0.06962382,0.30630818,6.7452145,5.926697,0,0,0,0,0,0,0,0,0,0,0,0,0,0,0,0,0,0,0,0,0
184,1.0565574,-0.81619585,-0.088077724,-0.0720148,-0.3763654,-0.015295333,0.84380645,6.7571855,5.9757776,0,0,0,0,0,0,0,0,0,0,0,0,0,0,0,0,0,0,0,0,0
185,1.0528888,-0.8156617,-0.0946052,0.046229545,-0.012044945,-0.06642803,1.0054151,6.6494465,6.1421747,0,0,0,0,0,0,0,0,0,0,0,0,0,0,0,0,0,0,0,0,0
186,1.054476,-0.82016486,-0.08603656,0.18045287,0.2681196,-0.15058391,0.92161804,6.527342,6.298995,0,0,0,0,0,0,0,0,0,0,0,0,0,0,0,0,0,0,0,0,0
187,1.0599412,-0.8247784,-0.07250532,0.07073063,0.2713154,-0.2581756,0.42601827,6.955904,6.11943,0,0,0,0,0,0,0,0,0,0,0,0,0,0,0,0,0,0,0,0,0
188,1.0716487,-0.82297957,-0.055883586,-0.1263433,0.20846479,-0.15804076,-0.0025438394,7.242011,6.770653,0,0,0,0,0,0,0,0,0,0,0,0,0,0,0,0,0,0,0,0,0
189,1.0773546,-0.82012886,-0.048200365,0.0057494985,0.18715951,-0.08240699,0.22011691,6.666206,6.966977,0,0,0,0,0,0,0,0,0,0,0,0,0,0,0,0,0,0,0,0,0
190,1.0849676,-0.82146436,-0.037795734,0.0654043,0.11898258,-0.14525759,0.03696049,6.9379478,6.8903627,0,0,0,0,0,0,0,0,0,0,0,0,0,0,0,0,0,0,0,0,0
191,1.093231,-0.8210008,-0.032998554,-0.03473055,-0.09833136,-0.13567021,0.1961749,6.9032316,6.89156,0,0,0,0,0,0,0,0,0,0,0,0,0,0,0,0,0,0,0,0,0
192,1.0993737,-0.8184615,-0.033758663,-0.08266745,-0.19100937,-0.13780074,0.25004444,6.8170404,6.8879685,0,0,0,0,0,0,0,0,0,0,0,0,0,0,0,0,0,0,0,0,0
193,1.1055032,-0.8170973,-0.03582427,0.0025537051,-0.20272727,-0.09625543,0.16624738,6.934356,6.8281136,0,0,0,0,0,0,0,0,0,0,0,0,0,0,0,0,0,0,0,0,0
194,1.1081504,-0.8165494,-0.039802928,0.011075821,-0.22935888,-0.076015405,0.3422212,6.7116957,6.6976295,0,0,0,0,0,0,0,0,0,0,0,0,0,0,0,0,0,0,0,0,0
195,1.1119534,-0.81789774,-0.0419459,0.0536864,-0.12922403,-0.12501757,0.26321256,6.856545,6.430676,0,0,0,0,0,0,0,0,0,0,0,0,0,0,0,0,0,0,0,0,0
196,1.1154382,-0.81990033,-0.04003053,0.07286356,-0.055713862,-0.09412996,0.032172084,7.0792055,6.452224,0,0,0,0,0,0,0,0,0,0,0,0,0,0,0,0,0,0,0,0,0
197,1.1165264,-0.82225794,-0.03938919,0.032383505,-0.037604365,-0.018496186,0.12195465,6.9475245,6.278644,0,0,0,0,0,0,0,0,0,0,0,0,0,0,0,0,0,0,0,0,0
198,1.1164585,-0.82200766,-0.039982922,-0.0038354846,-0.0067116986,6.7857344E-4,0.22849663,6.8649244,6.5515833,1,0,0,0,0,0,0,0,0,0,0,0,0,0,0,0,0,0,0,0,0
199,1.1168485,-0.8227969,-0.03848924,0.06434144,0.06572628,0.0038743666,0.11836334,6.9487214,6.6258035,1,0,0,0,0,0,0,0,0,0,0,0,0,0,0,0,0,0,0,0,0
200,1.116149,-0.8241071,-0.037246604,0.008947688,0.007136739,0.061398644,-0.0815525,7.133075,6.654534,1,0,0,0,0,0,0,0,0,0,0,0,0,0,0,0,0,0,0,0,0
201,1.1135548,-0.82293683,-0.04062218,-0.02194498,-0.06530124,0.1764472,-0.20006548,7.1474404,6.9143047,1,0,0,0,0,0,0,0,0,0,0,0,0,0,0,0,0,0,0,0,0
202,1.105716,-0.8237505,-0.047598526,0.09629937,-0.07914968,0.3799127,-1.6114473,8.008156,7.271041,1,0,0,0,0,0,0,0,0,0,0,0,0,0,0,0,0,0,0,0,0
203,1.0840541,-0.82762563,-0.06388186,0.27739432,-0.177154,1.2608864,-3.0515597,9.548824,7.735516,1,0,0,0,0,0,0,0,0,0,0,0,0,0,0,0,0,0,0,0,0
204,0.998527,-0.8356205,-0.12688303,0.57673365,-0.09512865,2.5615742,-4.7227125,10.143784,7.9078984,1,0,0,0,0,0,0,0,0,0,0,0,0,0,0,0,0,0,0,0,0
205,0.8360414,-0.83279145,-0.25040498,0.76102436,7.451525E-4,3.9975507,-2.6122236,7.1258926,7.8324814,1,0,0,0,0,0,0,0,0,0,0,0,0,0,0,0,0,0,0,0,0
206,0.6908063,-0.8221592,-0.35738134,1.2244143,0.33843398,4.2265825,-0.18570027,5.894076,7.5356,1,0,0,0,0,0,0,0,0,0,0,0,0,0,0,0,0,0,0,0,0
207,0.49015015,-0.8045784,-0.49794358,1.8092445,0.44922146,4.2862372,1.6757915,4.9052706,8.159289,1,0,0,0,0,0,0,0,0,0,0,0,0,0,0,0,0,0,0,0,0
208,0.34461337,-0.78803474,-0.60350573,1.8561162,-0.434948,4.352284,0.60438627,5.294328,6.6234093,1,0,0,0,0,0,0,0,0,0,0,0,0,0,0,0,0,0,0,0,0
209,0.1560351,-0.7236995,-0.76671046,1.1562375,-1.0410835,4.9509625,1.3070844,3.9416041,5.265897,1,0,0,0,0,0,0,0,0,0,0,0,0,0,0,0,0,0,0,0,0
210,0.095993385,-0.6374434,-0.8842182,1.6388023,0.33949924,5.1895814,8.6357355,0.4281132,2.2324433,1,0,0,0,0,0,0,0,0,0,0,0,0,0,0,0,0,0,0,0,0
211,-0.13107322,-0.5562718,-0.92744064,2.8926184,2.8577843,3.6971462,11.7721405,0.35987845,5.9817634,1,0,0,0,0,0,0,0,0,0,0,0,0,0,0,0,0,0,0,0,0
212,-0.3092115,-0.52986526,-0.93547636,2.3770306,1.9182211,2.2792792,9.138518,1.0458173,2.2659624,1,0,0,0,0,0,0,0,0,0,0,0,0,0,0,0,0,0,0,0,0
213,-0.39100188,-0.5080109,-0.92949456,1.0262752,1.6252733,1.895784,7.0627456,2.4129064,3.688118,1,0,0,0,0,0,0,0,0,0,0,0,0,0,0,0,0,0,0,0,0
214,-0.46123785,-0.45879743,-0.92153186,-0.19771361,0.46306992,1.6039015,9.288156,1.1822867,5.890784,1,0,0,0,0,0,0,0,0,0,0,0,0,0,0,0,0,0,0,0,0
215,-0.4890547,-0.42762902,-0.9223523,0.17193314,0.6942323,0.9018923,9.265411,2.0789154,6.096685,1,0,0,0,0,0,0,0,0,0,0,0,0,0,0,0,0,0,0,0,0
216,-0.5211336,-0.42355862,-0.9040079,0.7844602,0.9019589,0.18070826,9.0415535,3.0653265,6.251111,1,0,0,0,0,0,0,0,0,0,0,0,0,0,0,0,0,0,0,0,0
217,-0.5373248,-0.4319458,-0.90518737,-0.018749187,-0.34972686,-0.46271145,10.159645,2.7696424,5.208436,1,0,0,0,0,0,0,0,0,0,0,0,0,0,0,0,0,0,0,0,0
218,-0.50852954,-0.4395563,-0.91703117,-0.81343645,-0.970776,-1.1327628,7.1357684,3.3358712,4.906767,1,0,0,0,0,0,0,0,0,0,0,0,0,0,0,0,0,0,0,0,0
219,-0.4540052,-0.45558596,-0.9158087,-0.5034445,-0.3870111,-1.0304974,5.7136126,3.9056911,5.7638907,1,0,0,0,0,0,0,0,0,0,0,0,0,0,0,0,0,0,0,0,0
220,-0.4340565,-0.47088265,-0.91206366,-0.05496818,-0.14945713,-1.0720427,7.82889,4.055329,5.433491,1,0,0,0,0,0,0,0,0,0,0,0,0,0,0,0,0,0,0,0,0
221,-0.40467516,-0.4992308,-0.91028696,-0.34898117,-0.57449764,-1.4044052,8.307731,4.1929955,5.088726,1,0,0,0,0,0,0,0,0,0,0,0,0,0,0,0,0,0,0,0,0
222,-0.3695429,-0.5192388,-0.9134262,-0.87415653,-0.99634236,-1.8518163,7.7283335,3.6112044,4.324976,1,0,0,0,0,0,0,0,0,0,0,0,0,0,0,0,0,0,0,0,0
223,-0.29448843,-0.5516423,-0.9004018,-0.89013547,-0.58834606,-2.2235935,6.6234093,3.581277,5.07077,1,0,0,0,0,0,0,0,0,0,0,0,0,0,0,0,0,0,0,0,0
224,-0.21870074,-0.59139746,-0.873774,-0.8666997,-0.5425397,-2.5293245,7.1980176,3.3598132,4.6697407,1,0,0,0,0,0,0,0,0,0,0,0,0,0,0,0,0,0,0,0,0
225,-0.1646933,-0.6255493,-0.8458896,-1.0115756,-0.12176026,-3.3623612,8.798542,2.7756279,2.631078,1,0,0,0,0,0,0,0,0,0,0,0,0,0,0,0,0,0,0,0,0
226,-0.014795896,-0.6853709,-0.74084836,-1.460052,0.6942323,-4.3264256,4.608689,2.8498483,3.957466,1,0,0,0,0,0,0,0,0,0,0,0,0,0,0,0,0,0,0,0,0
227,0.15775132,-0.7218232,-0.6160556,-1.4717698,0.9562873,-4.508586,1.5776293,2.7576714,5.5208793,1,0,0,0,0,0,0,0,0,0,0,0,0,0,0,0,0,0,0,0,0
228,0.39162707,-0.752136,-0.4402818,-1.4099846,0.7197986,-4.6193733,1.2256817,3.2544682,6.251111,1,0,0,0,0,0,0,0,0,0,0,0,0,0,0,0,0,0,0,0,0
229,0.5794283,-0.75814533,-0.30180338,-1.6059998,0.08168448,-4.5320067,-1.7503111,5.7372556,7.357232,1,0,0,0,0,0,0,0,0,0,0,0,0,0,0,0,0,0,0,0,0
230,0.79123366,-0.72874403,-0.16652481,-2.0470192,-0.70554596,-3.2856472,-5.132121,8.576778,8.496872,0,0,0,0,0,0,0,0,0,0,0,0,0,0,0,0,0,0,0,0,0
231,0.9096187,-0.67749834,-0.108544014,-1.5846945,-0.41366348,-1.6781633,-2.8851626,8.251167,10.16204,0,0,0,0,0,0,0,0,0,0,0,0,0,0,0,0,0,0,0,0,0
232,0.9657894,-0.6574496,-0.07434209,-0.42888266,0.2872805,-1.3212997,-1.6928502,6.3310175,10.39308,0,0,0,0,0,0,0,0,0,0,0,0,0,0,0,0,0,0,0,0,0
233,1.0288895,-0.65998024,-0.021032158,0.29975823,0.27236682,-1.1146383,-4.4485765,8.537274,10.560674,0,0,0,0,0,0,0,0,0,0,0,0,0,0,0,0,0,0,0,0,0
234,1.0455564,-0.6709861,-0.0072610895,0.37113094,-0.08130098,0.15728736,-2.2183776,7.8393645,8.924237,0,0,0,0,0,0,0,0,0,0,0,0,0,0,0,0,0,0,0,0,0
235,1.0354598,-0.6812788,-0.021203103,0.5074848,-0.10793259,0.31388122,0.39249945,4.8597803,8.132954,0,0,0,0,0,0,0,0,0,0,0,0,0,0,0,0,0,0,0,0,0
236,1.0324179,-0.7040982,-0.023728965,0.7642135,-0.01631985,-0.1313993,0.27518356,5.9503393,7.17647,0,0,0,0,0,0,0,0,0,0,0,0,0,0,0,0,0,0,0,0,0
237,1.028415,-0.724728,-0.023926128,0.6449039,-0.12817262,-0.025938123,0.056114104,6.7607765,5.976975,0,0,0,0,0,0,0,0,0,0,0,0,0,0,0,0,0,0,0,0,0
238,1.0118078,-0.7392464,-0.036015972,0.22945076,-0.1494779,0.1796579,0.755221,6.0939913,5.470601,0,0,0,0,0,0,0,0,0,0,0,0,0,0,0,0,0,0,0,0,0
239,1.0010911,-0.74268705,-0.039717294,0.07498743,0.058248658,-0.08133187,0.84620064,5.858163,5.959018,0,0,0,0,0,0,0,0,0,0,0,0,0,0,0,0,0,0,0,0,0
240,1.0079215,-0.74648964,-0.029017594,0.050486345,0.063574985,-0.2507089,-0.33892918,6.7954926,6.3504705,0,0,0,0,0,0,0,0,0,0,0,0,0,0,0,0,0,0,0,0,0
241,1.0099393,-0.7483039,-0.023448635,-0.03260428,0.038008634,0.07845779,-0.6322189,7.0995564,6.4234934,0,0,0,0,0,0,0,0,0,0,0,0,0,0,0,0,0,0,0,0,0
242,1.0020968,-0.74416035,-0.025219781,-0.15084863,0.14879614,0.1796579,0.21772271,6.121525,7.1597104,0,0,0,0,0,0,0,0,0,0,0,0,0,0,0,0,0,0,0,0,0
243,1.0028671,-0.7392474,-0.021394877,-0.06030116,0.13068664,-0.039786562,0.08245032,6.216096,7.8480434,0,0,0,0,0,0,0,0,0,0,0,0,0,0,0,0,0,0,0,0,0
244,1.0058535,-0.7399165,-0.017876714,0.054747403,0.0017896442,-0.009959158,-0.28505963,6.7272577,7.4434233,0,0,0,0,0,0,0,0,0,0,0,0,0,0,0,0,0,0,0,0,0
245,1.0026925,-0.7397323,-0.021481942,-0.015560051,-0.053604107,0.14663471,0.07646482,6.4124203,7.529615,0,0,0,0,0,0,0,0,0,0,0,0,0,0,0,0,0,0,0,0,0
246,0.9996193,-0.73953575,-0.026028326,0.10586997,-0.058961853,0.060370665,0.28116906,6.138284,7.4661684,0,0,0,0,0,0,0,0,0,0,0,0,0,0,0,0,0,0,0,0,0
247,0.9983496,-0.74564606,-0.027228966,0.20067851,-0.042982887,-0.023785224,0.034566287,6.4746695,6.8616323,0,0,0,0,0,0,0,0,0,0,0,0,0,0,0,0,0,0,0,0,0
248,0.99649674,-0.7500591,-0.028304433,0.082434155,-0.090919785,0.0103032375,0.011821371,6.6171246,6.5922847,0,0,0,0,0,0,0,0,0,0,0,0,0,0,0,0,0,0,0,0,0
249,0.992737,-0.7524951,-0.031626564,0.07391204,-0.04830921,0.09126333,-0.11028291,6.669797,6.7682586,0,0,0,0,0,0,0,0,0,0,0,0,0,0,0,0,0,0,0,0,0
250,0.98552805,-0.756303,-0.035477232,0.12611,-0.007829161,0.13493918,0.0058358666,6.559664,6.7922006,0,0,0,0,0,0,0,0,0,0,0,0,0,0,0,0,0,0,0,0,0
251,0.9798906,-0.7586611,-0.03774415,0.069650985,0.003888748,0.083806485,0.12794015,6.5129766,6.8185368,0,0,0,0,0,0,0,0,0,0,0,0,0,0,0,0,0,0,0,0,0
252,0.9767896,-0.76029944,-0.038729638,0.06219413,0.021998243,0.098720185,-0.17253216,6.7954926,7.202806,0,0,0,0,0,0,0,0,0,0,0,0,0,0,0,0,0,0,0,0,0
253,0.97080046,-0.7625027,-0.042481307,0.13250159,-0.030199714,0.22229086,0.111180745,6.5919857,7.1022496,0,0,0,0,0,0,0,0,0,0,0,0,0,0,0,0,0,0,0,0,0
254,0.958321,-0.7659177,-0.052153956,0.12078368,-0.076006085,0.14772235,0.7468413,6.241235,6.892757,0,0,0,0,0,0,0,0,0,0,0,0,0,0,0,0,0,0,0,0,0
255,0.9528338,-0.7687332,-0.057136618,0.06325939,-0.06748397,-0.03443787,0.767192,6.311864,6.526444,0,0,0,0,0,0,0,0,0,0,0,0,0,0,0,0,0,0,0,0,0
256,0.9527484,-0.7693878,-0.056494698,0.011061439,0.001758219,-0.07385265,0.5684733,6.4615016,6.650943,0,0,0,0,0,0,0,0,0,0,0,0,0,0,0,0,0,0,0,0,0
257,0.95478,-0.7706614,-0.053381655,0.065389924,0.032650888,-0.04509051,0.28595746,6.5907884,6.919093,1,0,0,0,0,0,0,0,0,0,0,0,0,0,0,0,0,0,0,0,0
258,0.9561262,-0.7720594,-0.051862653,0.021714084,-0.035526037,-0.07172212,0.1770213,6.6111393,6.8364935,1,0,0,0,0,0,0,0,0,0,0,0,0,0,0,0,0,0,0,0,0
259,0.96131074,-0.771372,-0.050430518,-0.02515755,-0.09518085,-0.0845053,-0.01810615,6.7607765,7.103447,1,0,0,0,0,0,0,0,0,0,0,0,0,0,0,0,0,0,0,0,0
260,0.96554655,-0.77248824,-0.04812803,0.10906576,-0.042982887,0.083806485,-0.73038113,7.4275618,7.4937015,1,0,0,0,0,0,0,0,0,0,0,0,0,0,0,0,0,0,0,0,0
261,0.95629174,-0.7775813,-0.058413755,0.2454196,-0.16229251,0.37142786,-0.2252046,7.025336,7.667281,1,0,0,0,0,0,0,0,0,0,0,0,0,0,0,0,0,0,0,0,0
262,0.9439178,-0.78387713,-0.073006116,0.3327713,-0.27201474,0.42149532,-0.13661914,6.9451303,7.414693,1,0,0,0,0,0,0,0,0,0,0,0,0,0,0,0,0,0,0,0,0
263,0.9262703,-0.7941776,-0.095814764,0.44248128,-0.4914978,0.8359106,-3.0635307,9.030479,8.7746,1,0,0,0,0,0,0,0,0,0,0,0,0,0,0,0,0,0,0,0,0
264,0.8549404,-0.8064466,-0.1743248,0.85154283,-1.1445049,2.396523,-3.707571,9.95943,9.922619,1,0,0,0,0,0,0,0,0,0,0,0,0,0,0,0,0,0,0,0,0
265,0.7484406,-0.81841904,-0.2867725,1.6153374,-1.1072206,3.0900102,0.08604162,5.757606,7.344064,1,0,0,0,0,0,0,0,0,0,0,0,0,0,0,0,0,0,0,0,0
266,0.5890533,-0.843307,-0.42154184,2.379132,0.023024892,3.359522,-2.7989714,8.867674,8.547151,1,0,0,0,0,0,0,0,0,0,0,0,0,0,0,0,0,0,0,0,0
267,0.4192693,-0.84891933,-0.55182314,3.3527837,0.0017196031,4.9840508,-0.39758712,4.5760674,10.440964,1,0,0,0,0,0,0,0,0,0,0,0,0,0,0,0,0,0,0,0,0
268,0.165998,-0.82512206,-0.8037628,3.1663625,-1.6696802,4.510008,4.5799584,2.4033296,4.9414825,1,0,0,0,0,0,0,0,0,0,0,0,0,0,0,0,0,0,0,0,0
269,-0.10170704,-0.7738265,-1.0318217,3.0108337,-1.2073555,3.5097244,9.585037,2.7923875,0.31588498,1,0,0,0,0,0,0,0,0,0,0,0,0,0,0,0,0,0,0,0,0
270,-0.27204475,-0.7355041,-1.1387028,2.9650273,0.5450045,2.4806788,9.696367,2.444031,-0.41314942,1,0,0,0,0,0,0,0,0,0,0,0,0,0,0,0,0,0,0,0,0
271,-0.44865224,-0.6972971,-1.2074827,2.4068289,1.1277041,1.6721432,9.322872,1.9364603,0.68818337,1,0,0,0,0,0,0,0,0,0,0,0,0,0,0,0,0,0,0,0,0
272,-0.5517755,-0.6755645,-1.2438877,1.6909711,0.29786313,1.0276582,9.962124,2.4979005,-0.03606266,1,0,0,0,0,0,0,0,0,0,0,0,0,0,0,0,0,0,0,0,0
273,-0.62759894,-0.66323453,-1.2860901,0.85686916,-0.07924049,0.13603187,9.62095,3.3191118,-0.4921581,1,0,0,0,0,0,0,0,0,0,0,0,0,0,0,0,0,0,0,0,0
274,-0.65001285,-0.67301524,-1.29869,0.5894878,0.3308863,-0.25918123,6.7802296,5.9587193,0.82345575,1,0,0,0,0,0,0,0,0,0,0,0,0,0,0,0,0,0,0,0,0
275,-0.6755358,-0.6794613,-1.3044221,0.2113189,0.10185446,-0.10578316,8.768614,5.8665423,0.15068507,1,0,0,0,0,0,0,0,0,0,0,0,0,0,0,0,0,0,0,0,0
276,-0.66003877,-0.69069165,-1.3029523,-0.58975995,-0.29975024,-0.59473956,7.339276,6.728455,0.6438906,1,0,0,0,0,0,0,0,0,0,0,0,0,0,0,0,0,0,0,0,0
277,-0.62016904,-0.70441234,-1.2900683,-0.7847033,-0.31679446,-0.41151404,4.972607,7.6729674,2.131887,1,0,0,0,0,0,0,0,0,0,0,0,0,0,0,0,0,0,0,0,0
278,-0.5840358,-0.7049976,-1.2763133,-0.48110297,-0.046217296,0.033766486,6.117036,7.287501,2.3784897,1,0,0,0,0,0,0,0,0,0,0,0,0,0,0,0,0,0,0,0,0
279,-0.57096875,-0.6998553,-1.268643,-0.3351583,0.016643958,0.10193595,7.578696,6.7356377,2.3126493,1,0,0,0,0,0,0,0,0,0,0,0,0,0,0,0,0,0,0,0,0
280,-0.55211,-0.6944345,-1.2616946,-0.60467017,-0.23049739,-0.1334875,7.8827596,6.0473046,2.0456958,1,0,0,0,0,0,0,0,0,0,0,0,0,0,0,0,0,0,0,0,0
281,-0.518737,-0.6948155,-1.2490786,-0.5801691,-0.17297311,-0.27836344,6.9813423,5.769577,2.6131215,1,0,0,0,0,0,0,0,0,0,0,0,0,0,0,0,0,0,0,0,0
282,-0.50547206,-0.69462246,-1.2424047,-0.4757732,-0.14101517,-0.32203928,8.21675,5.2632036,2.1282957,1,0,0,0,0,0,0,0,0,0,0,0,0,0,0,0,0,0,0,0,0
283,-0.48726708,-0.7021453,-1.2312403,-0.6696513,-0.24328056,-0.8259094,9.429414,4.6466966,1.6805799,1,0,0,0,0,0,0,0,0,0,0,0,0,0,0,0,0,0,0,0,0
284,-0.44571888,-0.72094077,-1.2127392,-0.9029442,-0.45420292,-1.3819774,7.3464584,5.210531,2.869301,1,0,0,0,0,0,0,0,0,0,0,0,0,0,0,0,0,0,0,0,0
285,-0.38051584,-0.7544091,-1.1902418,-0.9455548,-0.57564306,-1.5247228,6.7886095,5.7504234,2.333,1,0,0,0,0,0,0,0,0,0,0,0,0,0,0,0,0,0,0,0,0
286,-0.34498605,-0.78205454,-1.164546,-0.5141227,0.44914132,-1.7665379,7.794174,5.792322,1.835006,1,0,0,0,0,0,0,0,0,0,0,0,0,0,0,0,0,0,0,0,0
287,-0.28666678,-0.8344781,-1.0948147,-0.53010166,0.87311655,-2.4376545,7.0400004,5.282357,2.6011505,0,0,0,0,0,0,0,0,0,0,0,0,0,0,0,0,0,0,0,0,0
288,-0.16393937,-0.90055984,-0.9933391,-0.96259904,0.015578694,-2.9095666,4.1094975,6.2867246,4.0113354,0,0,0,0,0,0,0,0,0,0,0,0,0,0,0,0,0,0,0,0,0
289,-0.047964744,-0.9413089,-0.9162963,-1.3333111,-0.5181188,-2.7284715,3.3684921,6.7871127,2.997391,0,0,0,0,0,0,0,0,0,0,0,0,0,0,0,0,0,0,0,0,0
290,0.10754731,-0.98202616,-0.7908068,-1.0041443,0.41824865,-2.70184,3.7371993,6.5225534,3.2104747,0,0,0,0,0,0,0,0,0,0,0,0,0,0,0,0,0,0,0,0,0
291,0.23240136,-1.0164574,-0.66310644,-0.5130575,1.257677,-3.149251,2.893243,6.3908725,3.580379,0,0,0,0,0,0,0,0,0,0,0,0,0,0,0,0,0,0,0,0,0
292,0.4621657,-1.0587007,-0.43051544,-0.5109269,1.0467547,-3.4038494,-1.2846389,7.7435966,6.2092123,0,0,0,0,0,0,0,0,0,0,0,0,0,0,0,0,0,0,0,0,0
293,0.6381366,-1.0657015,-0.27973178,-0.8986832,-0.6033399,-2.7274063,-0.2515408,7.9674544,6.051195,0,0,0,0,0,0,0,0,0,0,0,0,0,0,0,0,0,0,0,0,0
294,0.854337,-1.0448639,-0.13396241,-1.2896352,-1.3106755,-3.0054405,-0.59271455,7.286304,5.6980505,0,0,0,0,0,0,0,0,0,0,0,0,0,0,0,0,0,0,0,0,0
295,1.0622025,-1.008348,0.005322271,-1.195892,-0.9847046,-2.678404,-4.1768346,10.493337,5.866842,0,0,0,0,0,0,0,0,0,0,0,0,0,0,0,0,0,0,0,0,0
296,1.1582806,-0.9867558,0.078210235,-0.4416826,0.06884884,-1.5204668,-2.8217163,9.035268,5.8560677,0,0,0,0,0,0,0,0,0,0,0,0,0,0,0,0,0,0,0,0,0
297,1.2443411,-0.9748239,0.15876286,-0.060317934,0.3639271,-1.4885089,-1.1649288,6.812252,4.840926,0,0,0,0,0,0,0,0,0,0,0,0,0,0,0,0,0,0,0,0,0
298,1.3256282,-0.9628173,0.23567356,-0.14660436,0.33409968,-1.8656125,-3.0395887,8.211663,5.3616652,0,0,0,0,0,0,0,0,0,0,0,0,0,0,0,0,0,0,0,0,0
299,1.412884,-0.94866604,0.32355115,0.12929913,0.4502135,-0.92924505,-5.321263,11.4498205,5.742343,0,0,0,0,0,0,0,0,0,0,0,0,0,0,0,0,0,0,0,0,0
300,1.4295688,-0.95287025,0.35632238,0.1751055,0.5641968,0.22869736,-3.7865796,8.46066,5.517288,0,0,0,0,0,0,0,0,0,0,0,0,0,0,0,0,0,0,0,0,0
301,1.4264126,-0.9506223,0.35292536,-0.15619174,-0.06537448,0.06038558,-1.8424878,6.3190465,5.8417025,0,0,0,0,0,0,0,0,0,0,0,0,0,0,0,0,0,0,0,0,0
302,1.4374576,-0.93914914,0.34958503,-0.2712403,-0.54900455,-0.42324448,-2.8516438,8.585158,5.416732,0,0,0,0,0,0,0,0,0,0,0,0,0,0,0,0,0,0,0,0,0
303,1.4405236,-0.9380134,0.34800613,0.044077978,-0.1665746,0.11258353,-2.673276,9.034071,4.56679,0,0,0,0,0,0,0,0,0,0,0,0,0,0,0,0,0,0,0,0,0
304,1.4202465,-0.9444207,0.3371539,0.071774855,0.3213165,0.42044497,-1.2247838,6.8673186,4.922329,0,0,0,0,0,0,0,0,0,0,0,0,0,0,0,0,0,0,0,0,0
305,1.413211,-0.9462717,0.33659345,0.060056943,0.1775058,-0.009921873,-1.4330794,7.07322,5.7399487,0,0,0,0,0,0,0,0,0,0,0,0,0,0,0,0,0,0,0,0,0
306,1.418977,-0.9464385,0.3414545,0.020642161,-0.22729467,-0.111122,-2.2973862,8.275109,5.46701,0,0,0,0,0,0,0,0,0,0,0,0,0,0,0,0,0,0,0,0,0
307,1.4164021,-0.94740665,0.3356171,0.036621127,-0.06111342,0.090212986,-1.8760067,7.7220488,5.2144217,0,0,0,0,0,0,0,0,0,0,0,0,0,0,0,0,0,0,0,0,0
308,1.4164826,-0.9491461,0.33722055,0.15486547,0.13809103,-0.020574518,-1.7407342,7.346159,5.672911,0,0,0,0,0,0,0,0,0,0,0,0,0,0,0,0,0,0,0,0,0
309,1.4247589,-0.95360637,0.34829074,0.20706344,0.06671831,-0.15160204,-1.9562124,7.8477445,5.3915925,0,0,0,0,0,0,0,0,0,0,0,0,0,0,0,0,0,0,0,0,0
310,1.431396,-0.9579848,0.35781324,0.193215,0.040086698,-0.053597715,-2.3476644,8.277503,5.040842,0,0,0,0,0,0,0,0,0,0,0,0,0,0,0,0,0,0,0,0,0
311,1.4311717,-0.96247077,0.3594161,0.08136223,-0.052591305,0.06677716,-2.081908,7.7292314,4.9761987,0,0,0,0,0,0,0,0,0,0,0,0,0,0,0,0,0,0,0,0,0
312,1.4283366,-0.96338385,0.355879,0.015315839,-0.13248613,-0.0035302863,-1.8472762,7.5209355,4.89719,0,0,0,0,0,0,0,0,0,0,0,0,0,0,0,0,0,0,0,0,0
313,1.4318068,-0.9655197,0.36008635,0.14632791,0.044298753,-0.06847653,-2.14296,8.026113,4.9630303,0,0,0,0,0,0,0,0,0,0,0,0,0,0,0,0,0,0,0,0,0
314,1.4341097,-0.9701537,0.3675684,0.11756578,0.090105124,-0.009886986,-2.057966,7.89084,4.7894506,0,0,0,0,0,0,0,0,0,0,0,0,0,0,0,0,0,0,0,0,0
315,1.4325436,-0.9708361,0.36858696,-0.0060048955,0.01660188,0.0039614523,-1.9202994,7.749582,4.992958,1,0,0,0,0,0,0,0,0,0,0,0,0,0,0,0,0,0,0,0,0
316,1.433359,-0.9697384,0.36904696,0.0121046,-0.039857134,-0.015213308,-2.2040124,7.953089,5.380819,1,0,0,0,0,0,0,0,0,0,0,0,0,0,0,0,0,0,0,0,0
317,1.4336071,-0.971017,0.36924323,0.10584787,-0.03879187,0.068942584,-2.3823802,8.24997,5.267094,1,0,0,0,0,0,0,0,0,0,0,0,0,0,0,0,0,0,0,0,0
318,1.4298459,-0.9759098,0.36632407,0.106913134,-0.04837925,0.18079534,-2.6385598,8.358907,5.243152,1,0,0,0,0,0,0,0,0,0,0,0,0,0,0,0,0,0,0,0,0
319,1.4225185,-0.98022974,0.35938567,0.11863104,-0.101642475,0.40023983,-3.159299,8.73719,5.3736362,1,0,0,0,0,0,0,0,0,0,0,0,0,0,0,0,0,0,0,0,0
320,1.3978939,-0.99211764,0.337576,0.30185652,-0.015356053,0.76562554,-3.706374,9.181314,5.768679,1,0,0,0,0,0,0,0,0,0,0,0,0,0,0,0,0,0,0,0,0
321,1.34829,-1.0151132,0.29407775,0.5063873,-0.11762144,1.2716261,-3.8224926,9.44348,6.1266127,1,0,0,0,0,0,0,0,0,0,0,0,0,0,0,0,0,0,0,0,0
322,1.2886822,-1.0393808,0.23759416,0.73968023,-0.37435016,1.8394121,-4.0116343,9.880422,5.7471313,1,0,0,0,0,0,0,0,0,0,0,0,0,0,0,0,0,0,0,0,0
323,1.1570908,-1.0740358,0.10363352,0.82277083,-0.63001364,2.6021414,-4.6365213,9.949853,6.666505,1,0,0,0,0,0,0,0,0,0,0,0,0,0,0,0,0,0,0,0,0
324,0.9965837,-1.0998045,-0.06126214,1.3277062,-0.98794246,3.8399787,-3.2502785,8.8150015,5.5101056,1,0,0,0,0,0,0,0,0,0,0,0,0,0,0,0,0,0,0,0,0
325,0.68850535,-1.1106871,-0.37710685,1.5386286,-1.0241615,4.36835,-1.9358617,6.728455,5.4035635,1,0,0,0,0,0,0,0,0,0,0,0,0,0,0,0,0,0,0,0,0
326,0.35396314,-1.0780134,-0.7176187,1.794292,-1.2212354,4.6762114,0.909647,6.588394,3.79466,1,0,0,0,0,0,0,0,0,0,0,0,0,0,0,0,0,0,0,0,0
327,0.11788018,-1.0137641,-0.942326,1.1615249,-1.6846254,4.1414485,5.4382796,4.6969748,1.0736499,1,0,0,0,0,0,0,0,0,0,0,0,0,0,0,0,0,0,0,0,0
328,-0.064235665,-0.9238872,-1.1367533,1.109327,-1.0912731,3.4532876,4.767903,5.443966,-0.06599019,1,0,0,0,0,0,0,0,0,0,0,0,0,0,0,0,0,0,0,0,0
329,-0.21495888,-0.8473751,-1.2266254,2.100012,1.3694528,3.576883,8.676437,3.4950855,-0.2287959,1,0,0,0,0,0,0,0,0,0,0,0,0,0,0,0,0,0,0,0,0
330,-0.38554144,-0.76583743,-1.2652788,1.6504704,1.7444259,2.2729995,10.822839,2.7864017,1.2376527,1,0,0,0,0,0,0,0,0,0,0,0,0,0,0,0,0,0,0,0,0
331,-0.45959762,-0.72979987,-1.2834213,0.71090716,0.572635,1.2631288,8.663269,4.0206127,-0.31139585,1,0,0,0,0,0,0,0,0,0,0,0,0,0,0,0,0,0,0,0,0
332,-0.5013293,-0.6929126,-1.2802267,0.4094373,1.2416211,1.2013434,7.625383,4.5976152,1.8098669,1,0,0,0,0,0,0,0,0,0,0,0,0,0,0,0,0,0,0,0,0
333,-0.54229456,-0.656365,-1.262555,0.2091676,0.63761616,0.9126568,9.968109,4.0289927,3.0500634,1,0,0,0,0,0,0,0,0,0,0,0,0,0,0,0,0,0,0,0,0
334,-0.55369264,-0.6430577,-1.2639904,-0.07632326,0.18381351,0.077489465,9.2486515,4.699369,1.6255133,1,0,0,0,0,0,0,0,0,0,0,0,0,0,0,0,0,0,0,0,0
335,-0.5389792,-0.64855695,-1.244117,0.11116327,0.6024624,-0.17284767,6.5898905,6.2627826,3.662979,1,0,0,0,0,0,0,0,0,0,0,0,0,0,0,0,0,0,0,0,0
336,-0.5369771,-0.6509627,-1.2364852,0.08559693,-0.029239379,0.015704129,7.6421423,6.0939913,2.9243677,1,0,0,0,0,0,0,0,0,0,0,0,0,0,0,0,0,0,0,0,0
337,-0.5316693,-0.654169,-1.2427146,-0.10402014,-0.1719848,-0.24422039,7.6229887,6.3765073,2.1498435,1,0,0,0,0,0,0,0,0,0,0,0,0,0,0,0,0,0,0,0,0
338,-0.5190901,-0.6626957,-1.2377647,0.11116327,0.15611663,-0.13449815,6.0763345,6.8326025,2.905214,1,0,0,0,0,0,0,0,0,0,0,0,0,0,0,0,0,0,0,0,0
339,-0.5248396,-0.6642634,-1.2398586,0.09624957,-0.028174113,-0.04075489,8.104223,5.819855,2.049287,1,0,0,0,0,0,0,0,0,0,0,0,0,0,0,0,0,0,0,0,0
340,-0.52411973,-0.6699236,-1.2431549,-0.046495862,-0.13257003,-0.34328997,8.088661,5.5169888,1.9295769,1,0,0,0,0,0,0,0,0,0,0,0,0,0,0,0,0,0,0,0,0
341,-0.51208574,-0.6791193,-1.2428601,-0.2616793,-0.2593365,-0.5201239,7.2542815,5.646276,2.2228665,1,0,0,0,0,0,0,0,0,0,0,0,0,0,0,0,0,0,0,0,0
342,-0.4969827,-0.69077915,-1.2416877,-0.28085405,-0.29662076,-0.60001874,8.185626,5.232079,2.0672436,1,0,0,0,0,0,0,0,0,0,0,0,0,0,0,0,0,0,0,0,0
343,-0.48307478,-0.7038414,-1.2403607,-0.4789932,-0.38823348,-1.0037539,8.368782,5.3362265,1.6901568,0,0,0,0,0,0,0,0,0,0,0,0,0,0,0,0,0,0,0,0,0
344,-0.4470944,-0.73264116,-1.2279972,-0.7325262,-0.3552103,-1.3755312,8.012047,5.4188266,1.2951134,0,0,0,0,0,0,0,0,0,0,0,0,0,0,0,0,0,0,0,0,0
345,-0.3908818,-0.77102053,-1.1923112,-0.8294652,0.041068073,-1.7750053,7.2901945,5.387702,2.013374,0,0,0,0,0,0,0,0,0,0,0,0,0,0,0,0,0,0,0,0,0
346,-0.3339601,-0.8050176,-1.1514695,-0.94237554,0.069854714,-2.0040548,6.418705,5.771971,2.4359505,0,0,0,0,0,0,0,0,0,0,0,0,0,0,0,0,0,0,0,0,0
347,-0.2506298,-0.8523078,-1.0819576,-1.0563588,0.25521073,-2.3300257,6.773047,5.591209,1.8038813,0,0,0,0,0,0,0,0,0,0,0,0,0,0,0,0,0,0,0,0,0
348,-0.15470192,-0.8936146,-0.99662954,-1.0105524,0.8613462,-2.9137907,5.159355,5.397279,3.3948283,0,0,0,0,0,0,0,0,0,0,0,0,0,0,0,0,0,0,0,0,0
349,-0.002352517,-0.9598793,-0.84732974,-0.7218658,1.0062221,-3.3761153,3.5480573,5.659444,3.3110313,0,0,0,0,0,0,0,0,0,0,0,0,0,0,0,0,0,0,0,0,0
350,0.15464881,-1.0081183,-0.69460565,-0.48857287,1.1883824,-3.1428225,-0.49335518,8.300248,6.057181,0,0,0,0,0,0,0,0,0,0,0,0,0,0,0,0,0,0,0,0,0
351,0.32793027,-1.0503306,-0.5259646,-0.7122784,0.19555591,-2.7241735,1.5105916,7.951892,3.2296286,0,0,0,0,0,0,0,0,0,0,0,0,0,0,0,0,0,0,0,0,0
352,0.556269,-1.0508066,-0.33825174,-1.6784732,-0.51817125,-3.2802415,1.0389339,5.932383,3.520524,0,0,0,0,0,0,0,0,0,0,0,0,0,0,0,0,0,0,0,0,0
353,0.77118117,-1.0242591,-0.16773716,-1.6550374,0.04215784,-3.4453576,-3.1569047,8.482207,7.927052,0,0,0,0,0,0,0,0,0,0,0,0,0,0,0,0,0,0,0,0,0
354,0.965471,-1.0038182,-0.003518206,-0.20734307,6.125271E-4,-2.2735667,-3.0216322,9.333346,6.476166,0,0,0,0,0,0,0,0,0,0,0,0,0,0,0,0,0,0,0,0,0
355,1.0696136,-1.0000684,0.081693575,-0.14449246,-0.21137509,-1.9316168,-2.7965772,8.910769,5.66932,0,0,0,0,0,0,0,0,0,0,0,0,0,0,0,0,0,0,0,0,0
356,1.1780866,-0.97753376,0.16359445,-0.7005605,-0.3424026,-1.3531783,-4.9405847,10.839299,6.277447,0,0,0,0,0,0,0,0,0,0,0,0,0,0,0,0,0,0,0,0,0
357,1.2127175,-0.9594694,0.18380745,-0.10294715,-0.25185513,-0.18564843,-4.0248027,9.990555,7.4302554,0,0,0,0,0,0,0,0,0,0,0,0,0,0,0,0,0,0,0,0,0
358,1.2136363,-0.9698284,0.18123773,0.49573144,-0.004713795,0.25750157,-2.129792,8.224831,5.0073233,0,0,0,0,0,0,0,0,0,0,0,0,0,0,0,0,0,0,0,0,0
359,1.2061056,-0.9881218,0.1847773,0.39133555,0.26053706,0.1669541,-1.5336359,7.6957126,3.8964136,0,0,0,0,0,0,0,0,0,0,0,0,0,0,0,0,0,0,0,0,0
360,1.1972582,-0.9952514,0.18835725,0.10477941,0.24775387,0.28519845,-1.4246997,8.509741,4.624251,0,0,0,0,0,0,0,0,0,0,0,0,0,0,0,0,0,0,0,0,0
361,1.1689535,-0.999805,0.168394,0.021688784,-0.07076019,0.5792114,-0.98895496,8.079982,4.849306,0,0,0,0,0,0,0,0,0,0,0,0,0,0,0,0,0,0,0,0,0
362,1.1369591,-1.000838,0.13806753,-0.14023142,-0.30192256,0.50144714,-0.21682489,7.3353853,4.445883,0,0,0,0,0,0,0,0,0,0,0,0,0,0,0,0,0,0,0,0,0
363,1.1156619,-0.9940053,0.11169774,-0.21054658,-0.18689851,0.21703911,-0.60588264,7.8692923,5.335329,0,0,0,0,0,0,0,0,0,0,0,0,0,0,0,0,0,0,0,0,0
364,1.1021066,-0.99183583,0.09943528,0.030203177,0.081548125,0.19466855,-0.32935238,7.81662,5.560384,0,0,0,0,0,0,0,0,0,0,0,0,0,0,0,0,0,0,0,0,0
365,1.0943475,-0.99389833,0.09667486,0.099445365,0.15505137,0.104121074,-0.13781624,7.6214924,5.3652563,0,0,0,0,0,0,0,0,0,0,0,0,0,0,0,0,0,0,0,0,0
366,1.0917007,-0.9931778,0.094466574,-0.082714856,-0.08676366,0.02316098,-0.38441902,7.819014,5.4370823,0,0,0,0,0,0,0,0,0,0,0,0,0,0,0,0,0,0,0,0,0
367,1.0921189,-0.9887489,0.088237494,-0.15089178,-0.25720596,-0.018384334,-0.47300446,7.842956,5.5460186,0,0,0,0,0,0,0,0,0,0,0,0,0,0,0,0,0,0,0,0,0
368,1.0946937,-0.98654914,0.08474404,0.03339897,-0.0643931,-0.05140753,-0.59151745,8.014141,5.446659,0,0,0,0,0,0,0,0,0,0,0,0,0,0,0,0,0,0,0,0,0
369,1.099383,-0.98860407,0.088968486,0.08879272,-0.020717263,-0.08336546,-0.7495348,7.9806223,5.292233,0,0,0,0,0,0,0,0,0,0,0,0,0,0,0,0,0,0,0,0,0
370,1.1050913,-0.9898795,0.09076029,-0.018798988,-0.18050693,-0.056733854,-0.8488941,8.142231,4.982184,0,0,0,0,0,0,0,0,0,0,0,0,0,0,0,0,0,0,0,0,0
371,1.1071963,-0.98954594,0.089191094,-0.011342137,-0.10700368,7.904262E-4,-0.835726,8.154202,5.112668,0,0,0,0,0,0,0,0,0,0,0,0,0,0,0,0,0,0,0,0,0
372,1.105184,-0.99016577,0.085426494,-0.01666846,-0.10274262,0.08707684,-0.7866449,8.178144,5.0276737,0,0,0,0,0,0,0,0,0,0,0,0,0,0,0,0,0,0,0,0,0
373,1.0993459,-0.9877296,0.076445356,-0.10188961,-0.113395266,0.12968743,-0.7686884,8.045266,5.3580737,0,0,0,0,0,0,0,0,0,0,0,0,0,0,0,0,0,0,0,0,0
374,1.09703,-0.9867967,0.07194045,0.058965314,-0.054805726,0.23088755,-1.4977227,8.732402,5.858462,1,0,0,0,0,0,0,0,0,0,0,0,0,0,0,0,0,0,0,0,0
375,1.0754272,-0.9927238,0.05272222,0.1793402,-0.04734887,0.5462058,-1.0380361,8.514529,5.5316534,1,0,0,0,0,0,0,0,0,0,0,0,0,0,0,0,0,0,0,0,0
376,1.0550497,-0.99526376,0.029839495,0.15057805,-0.24761859,0.6836249,-1.9358617,8.843732,6.454618,1,0,0,0,0,0,0,0,0,0,0,0,0,0,0,0,0,0,0,0,0
377,1.0011158,-1.0042837,-0.02661001,0.4126331,-0.38823348,1.4942912,-3.2119713,10.906337,6.1337953,1,0,0,0,0,0,0,0,0,0,0,0,0,0,0,0,0,0,0,0,0
378,0.8780733,-1.0154417,-0.14048362,0.6523176,-0.20181222,2.4668775,-3.0587423,9.317784,6.28463,1,0,0,0,0,0,0,0,0,0,0,0,0,0,0,0,0,0,0,0,0
379,0.7484016,-1.0192555,-0.25754866,1.044336,-0.057998054,3.1837978,-2.6565163,8.952668,6.975357,1,0,0,0,0,0,0,0,0,0,0,0,0,0,0,0,0,0,0,0,0
380,0.517302,-1.0262017,-0.4532119,1.9412886,0.43734992,3.5321393,0.12075755,7.2456026,6.677279,1,0,0,0,0,0,0,0,0,0,0,0,0,0,0,0,0,0,0,0,0
381,0.33676383,-1.0220917,-0.6074083,2.1575372,0.073029466,4.075424,-0.8500912,7.9111905,5.768679,1,0,0,0,0,0,0,0,0,0,0,0,0,0,0,0,0,0,0,0,0
382,0.06931698,-0.97021466,-0.8426653,1.8603286,-0.10273916,4.8392186,0.95872813,6.0688524,4.589535,1,0,0,0,0,0,0,0,0,0,0,0,0,0,0,0,0,0,0,0,0
383,-0.1348829,-0.892529,-0.99979097,2.3141313,0.20831805,5.0597286,5.268291,3.9715316,3.5600283,1,0,0,0,0,0,0,0,0,0,0,0,0,0,0,0,0,0,0,0,0
384,-0.38892037,-0.7863481,-1.1529243,2.5570114,1.1958182,4.0360093,10.754604,2.517054,-0.7543232,1,0,0,0,0,0,0,0,0,0,0,0,0,0,0,0,0,0,0,0,0
385,-0.5395882,-0.7251665,-1.1911895,2.586839,2.5785315,2.8897848,9.727492,3.3071408,2.392855,1,0,0,0,0,0,0,0,0,0,0,0,0,0,0,0,0,0,0,0,0
386,-0.68413126,-0.6656111,-1.2138823,0.9708327,0.6195101,1.9214596,9.919028,1.8993502,0.8725369,1,0,0,0,0,0,0,0,0,0,0,0,0,0,0,0,0,0,0,0,0
387,-0.7368867,-0.6152727,-1.2310897,0.08666325,0.19766541,1.1214459,9.830442,2.2979846,1.5165771,1,0,0,0,0,0,0,0,0,0,0,0,0,0,0,0,0,0,0,0,0
388,-0.74742293,-0.5941649,-1.2281419,0.24006133,0.33614978,0.6495338,7.6960115,3.5872624,3.3804631,1,0,0,0,0,0,0,0,0,0,0,0,0,0,0,0,0,0,0,0,0
389,-0.78400195,-0.5768169,-1.2335902,0.5340743,0.12735796,0.40239245,10.031555,3.429245,2.6250925,1,0,0,0,0,0,0,0,0,0,0,0,0,0,0,0,0,0,0,0,0
390,-0.7963152,-0.57773054,-1.2424887,0.3817415,0.033614684,-0.08443339,8.235904,5.1662383,2.1067479,1,0,0,0,0,0,0,0,0,0,0,0,0,0,0,0,0,0,0,0,0
391,-0.7982929,-0.58543676,-1.238885,0.12501277,0.30951816,0.006114085,7.3237133,6.241235,2.7412114,1,0,0,0,0,0,0,0,0,0,0,0,0,0,0,0,0,0,0,0,0
392,-0.7888077,-0.5834823,-1.2390505,-0.24356872,-0.22524457,0.034876224,7.554754,5.924003,2.593968,1,0,0,0,0,0,0,0,0,0,0,0,0,0,0,0,0,0,0,0,0
393,-0.7834574,-0.58259624,-1.2408222,0.062162176,-0.02284433,0.029549902,7.7786117,5.527763,2.6885388,1,0,0,0,0,0,0,0,0,0,0,0,0,0,0,0,0,0,0,0,0
394,-0.78429145,-0.5867678,-1.2443044,0.21342972,0.017635718,-0.087629184,7.545177,5.5959973,2.5640404,1,0,0,0,0,0,0,0,0,0,0,0,0,0,0,0,0,0,0,0,0
395,-0.7879387,-0.5906681,-1.244793,0.25071397,0.17955591,-0.06738916,7.825299,5.482273,2.3413796,1,0,0,0,0,0,0,0,0,0,0,0,0,0,0,0,0,0,0,0,0
396,-0.7885957,-0.5943149,-1.2467656,-6.9055764E-4,-0.12511663,-0.1302347,7.9162784,5.339818,2.2228665,1,0,0,0,0,0,0,0,0,0,0,0,0,0,0,0,0,0,0,0,0
397,-0.7824708,-0.59877485,-1.2492001,0.052572664,-0.05800498,-0.26126224,7.533206,5.4427686,2.3916578,1,0,0,0,0,0,0,0,0,0,0,0,0,0,0,0,0,0,0,0,0
398,-0.7808323,-0.60748625,-1.249602,0.22408023,0.10924154,-0.25274011,7.2770267,5.7947164,2.1905448,1,0,0,0,0,0,0,0,0,0,0,0,0,0,0,0,0,0,0,0,0
399,-0.7827625,-0.6147433,-1.2524959,-0.050757986,-0.12085558,-0.28469804,8.513632,5.2979193,1.6973394,1,0,0,0,0,0,0,0,0,0,0,0,0,0,0,0,0,0,0,0,0
400,-0.7690759,-0.6222539,-1.2536337,-0.34264043,-0.33710426,-0.48816356,7.758261,5.4128413,2.1390696,1,0,0,0,0,0,0,0,0,0,0,0,0,0,0,0,0,0,0,0,0
401,-0.75006944,-0.63259465,-1.2530386,-0.28618142,-0.18796724,-0.5084036,7.1597104,5.7468324,2.1235073,1,0,0,0,0,0,0,0,0,0,0,0,0,0,0,0,0,0,0,0,0
402,-0.7375653,-0.64403015,-1.2485349,-0.2989646,-0.14322613,-0.62664795,8.827272,5.093215,1.9906291,1,0,0,0,0,0,0,0,0,0,0,0,0,0,0,0,0,0,0,0,0
403,-0.7207689,-0.65686417,-1.2437941,-0.64197975,-0.45215282,-1.130518,8.610597,4.99625,2.0433016,1,0,0,0,0,0,0,0,0,0,0,0,0,0,0,0,0,0,0,0,0
404,-0.6667492,-0.68999237,-1.2292646,-0.78579044,-0.4020854,-1.3606151,6.632986,5.7109194,2.274342,1,0,0,0,0,0,0,0,0,0,0,0,0,0,0,0,0,0,0,0,0
405,-0.6353487,-0.7136676,-1.2093387,-0.41827422,0.14546053,-1.3702025,8.166472,5.3470006,2.7436056,1,0,0,0,0,0,0,0,0,0,0,0,0,0,0,0,0,0,0,0,0
406,-0.6168326,-0.7412701,-1.1882068,-0.530127,-0.024981782,-1.9869906,10.007613,4.4084735,2.0935798,1,0,0,0,0,0,0,0,0,0,0,0,0,0,0,0,0,0,0,0,0
407,-0.5476128,-0.80762887,-1.1376079,-1.0169529,0.0048456215,-3.2578511,7.1226006,4.427627,1.5848119,1,0,0,0,0,0,0,0,0,0,0,0,0,0,0,0,0,0,0,0,0
408,-0.4446691,-0.8699539,-1.0606227,-1.2012435,0.19552796,-3.6701083,4.6541786,4.689792,2.9339445,1,0,0,0,0,0,0,0,0,0,0,0,0,0,0,0,0,0,0,0,0
409,-0.28996715,-0.9440051,-0.9214953,-1.6454588,-0.37012747,-4.019515,5.100697,4.1139865,3.4917936,1,0,0,0,0,0,0,0,0,0,0,0,0,0,0,0,0,0,0,0,0
410,-0.0034978613,-1.0080893,-0.7118001,-1.803118,-0.16879249,-4.98571,3.1853356,3.7009869,3.6234746,0,0,0,0,0,0,0,0,0,0,0,0,0,0,0,0,0,0,0,0,0
411,0.28919196,-1.0392103,-0.47257468,-1.8670338,0.15611318,-5.444839,-2.4877253,5.0489225,5.326949,0,0,0,0,0,0,0,0,0,0,0,0,0,0,0,0,0,0,0,0,0
412,0.5727169,-1.0312791,-0.23787192,-1.8936654,-0.35095268,-4.3795743,-6.170007,9.442283,7.721151,0,0,0,0,0,0,0,0,0,0,0,0,0,0,0,0,0,0,0,0,0
413,0.801563,-0.9959643,-0.07404628,-1.1234859,-0.8963888,-2.5813932,-5.0327616,10.113856,8.198794,0,0,0,0,0,0,0,0,0,0,0,0,0,0,0,0,0,0,0,0,0
414,0.9159695,-0.97743136,-0.0034365468,-0.64944327,-0.9102373,-1.7515522,-5.2434516,10.7016325,6.2570963,0,0,0,0,0,0,0,0,0,0,0,0,0,0,0,0,0,0,0,0,0
415,0.9933409,-0.95777315,0.04118531,-0.5908537,-0.45749992,-1.1123936,-4.235492,9.317784,7.4482117,0,0,0,0,0,0,0,0,0,0,0,0,0,0,0,0,0,0,0,0,0
416,1.0733546,-0.9433972,0.09196073,0.093046054,-0.13685532,-0.8822965,-3.4394205,8.502559,7.7319245,0,0,0,0,0,0,0,0,0,0,0,0,0,0,0,0,0,0,0,0,0
417,1.1055708,-0.9520197,0.11645513,0.47121492,-0.1432469,-0.37736115,-3.2059858,9.844508,6.0547867,0,0,0,0,0,0,0,0,0,0,0,0,0,0,0,0,0,0,0,0,0
418,1.1078607,-0.96240145,0.11620534,0.24644414,-0.23699018,0.19894692,-1.583914,7.9099936,4.9558477,0,0,0,0,0,0,0,0,0,0,0,0,0,0,0,0,0,0,0,0,0
419,1.0952272,-0.9642376,0.09360575,-0.12746368,-0.5576348,0.0647236,-0.49694648,7.1534257,4.646996,0,0,0,0,0,0,0,0,0,0,0,0,0,0,0,0,0,0,0,0,0
420,1.0967633,-0.9626285,0.085713424,-0.04756885,-0.33605978,-0.038607046,-1.4055461,8.252364,4.8337436,0,0,0,0,0,0,0,0,0,0,0,0,0,0,0,0,0,0,0,0,0
421,1.089433,-0.9678638,0.08096341,0.2112904,0.15396187,0.38110715,-1.7443255,8.70008,5.1282306,0,0,0,0,0,0,0,0,0,0,0,0,0,0,0,0,0,0,0,0,0
422,1.0668336,-0.97521824,0.07056002,0.2773368,0.3563621,0.49295992,-0.45744216,7.1127243,5.4741926,0,0,0,0,0,0,0,0,0,0,0,0,0,0,0,0,0,0,0,0,0
423,1.0546283,-0.9780841,0.06492934,0.04617442,0.049565956,0.17338057,-0.42152914,7.2575736,5.6381955,0,0,0,0,0,0,0,0,0,0,0,0,0,0,0,0,0,0,0,0,0
424,1.0510043,-0.9744328,0.05576415,-0.11254998,-0.2540344,0.09987733,-0.9698013,8.276306,5.994931,0,0,0,0,0,0,0,0,0,0,0,0,0,0,0,0,0,0,0,0,0
425,1.0384607,-0.9756822,0.042468686,0.16761456,-0.053764693,0.3470187,-0.24794951,7.5867763,5.4382796,0,0,0,0,0,0,0,0,0,0,0,0,0,0,0,0,0,0,0,0,0
426,1.0228264,-0.97945696,0.031724785,0.16761456,0.019738551,0.16911952,0.3230676,7.003788,5.2599115,0,0,0,0,0,0,0,0,0,0,0,0,0,0,0,0,0,0,0,0,0
427,1.0222552,-0.9820982,0.033601165,0.080262884,-0.009023589,-0.22076726,-0.049230773,7.3712983,4.9857755,0,0,0,0,0,0,0,0,0,0,0,0,0,0,0,0,0,0,0,0,0
428,1.0398836,-0.98472506,0.051613305,0.054696534,0.09963338,-0.16430825,-1.3851954,8.654591,5.154567,0,0,0,0,0,0,0,0,0,0,0,0,0,0,0,0,0,0,0,0,0
429,1.0432141,-0.98566926,0.05737678,-0.02201369,-0.014384798,0.103097886,-1.084723,8.08477,5.154567,0,0,0,0,0,0,0,0,0,0,0,0,0,0,0,0,0,0,0,0,0
430,1.0395674,-0.9817794,0.05046479,-0.111495905,-0.14754285,0.010419884,-0.56278706,7.4072113,5.4622216,0,0,0,0,0,0,0,0,0,0,0,0,0,0,0,0,0,0,0,0,0
431,1.0501443,-0.9797294,0.056817207,3.5686357E-4,-0.011189005,-0.16854455,-1.3959693,8.399608,5.5101056,0,0,0,0,0,0,0,0,0,0,0,0,0,0,0,0,0,0,0,0,0
432,1.0560012,-0.98084766,0.06390195,0.08983908,0.11238167,0.103097886,-1.452233,8.649802,5.6274214,0,0,0,0,0,0,0,0,0,0,0,0,0,0,0,0,0,0,0,0,0
433,1.0464224,-0.9826904,0.056381866,0.055750612,-0.0026668895,0.21921171,-0.5161001,7.510162,5.7483287,0,0,0,0,0,0,0,0,0,0,0,0,0,0,0,0,0,0,0,0,0
434,1.042888,-0.9833569,0.050959934,0.03551059,-0.14860812,0.011485148,-0.47180736,7.6969094,5.3616652,0,0,0,0,0,0,0,0,0,0,0,0,0,0,0,0,0,0,0,0,0
435,1.0431219,-0.98581547,0.04953737,0.07812117,-0.027167972,0.12333792,-1.1385926,8.582765,5.183297,0,0,0,0,0,0,0,0,0,0,0,0,0,0,0,0,0,0,0,0,0
436,1.0287459,-0.98966676,0.038399898,0.16440758,0.065510035,0.35343504,-0.70165074,7.8752775,5.607071,0,0,0,0,0,0,0,0,0,0,0,0,0,0,0,0,0,0,0,0,0
437,1.0166768,-0.9943035,0.028987302,0.16760337,-0.026102707,0.19897169,-0.38322192,7.608324,5.21083,0,0,0,0,0,0,0,0,0,0,0,0,0,0,0,0,0,0,0,0,0
438,1.0111493,-0.996934,0.021717334,0.020596888,-0.13902074,0.12440318,-0.89198977,8.399608,5.2742767,0,0,0,0,0,0,0,0,0,0,0,0,0,0,0,0,0,0,0,0,0
439,1.0019552,-0.998935,0.011713468,0.20701817,-0.049538523,0.43013406,-1.0452187,8.668956,5.8201547,1,0,0,0,0,0,0,0,0,0,0,0,0,0,0,0,0,0,0,0,0
440,0.97135353,-1.0082153,-0.015523885,0.30608776,-0.08575752,0.58140165,-0.80699563,8.278701,5.4538417,1,0,0,0,0,0,0,0,0,0,0,0,0,0,0,0,0,0,0,0,0
441,0.94753605,-1.0138848,-0.039185192,0.24323715,-0.17417446,0.6900586,-1.2798505,8.86528,5.729175,1,0,0,0,0,0,0,0,0,0,0,0,0,0,0,0,0,0,0,0,0
442,0.9007005,-1.0216123,-0.085903235,0.62034076,-0.20826292,1.5177691,-4.2247186,11.713182,7.3704004,1,0,0,0,0,0,0,0,0,0,0,0,0,0,0,0,0,0,0,0,0
443,0.75999475,-1.0375466,-0.21381192,1.1625603,-0.14860812,3.0325751,-4.468927,10.750713,6.847267,1,0,0,0,0,0,0,0,0,0,0,0,0,0,0,0,0,0,0,0,0
444,0.58674395,-1.0389762,-0.3724823,1.591862,-0.12304177,3.9572246,-2.356044,8.2894745,7.6062293,1,0,0,0,0,0,0,0,0,0,0,0,0,0,0,0,0,0,0,0,0
445,0.31276384,-1.0250567,-0.61672765,2.3577871,0.07616268,4.3929176,-3.4154785,8.491784,8.09704,1,0,0,0,0,0,0,0,0,0,0,0,0,0,0,0,0,0,0,0,0
446,0.07713126,-0.9869785,-0.82287127,3.2078648,-0.31693056,5.6861563,-2.7881975,6.1658177,7.1106296,1,0,0,0,0,0,0,0,0,0,0,0,0,0,0,0,0,0,0,0,0
447,-0.28240097,-0.8699013,-1.1231902,2.696538,-1.0796598,5.886426,5.8752213,2.942025,0.71571666,1,0,0,0,0,0,0,0,0,0,0,0,0,0,0,0,0,0,0,0,0
448,-0.47744843,-0.7595216,-1.2635021,2.6262305,0.6215674,4.3939905,12.940511,0.9991303,-4.2007766,1,0,0,0,0,0,0,0,0,0,0,0,0,0,0,0,0,0,0,0,0
449,-0.6642155,-0.66489375,-1.2971234,2.5857503,2.8735363,2.5809104,9.838822,1.8287212,2.191742,1,0,0,0,0,0,0,0,0,0,0,0,0,0,0,0,0,0,0,0,0
450,-0.78986716,-0.6024597,-1.3051126,1.290389,0.72489804,1.9097939,10.559477,1.1176432,0.8773253,1,0,0,0,0,0,0,0,0,0,0,0,0,0,0,0,0,0,0,0,0
451,-0.8375137,-0.56469643,-1.3203232,0.42432892,0.31690177,1.0064496,11.064653,1.7568952,0.4786907,1,0,0,0,0,0,0,0,0,0,0,0,0,0,0,0,0,0,0,0,0
452,-0.8594641,-0.54564923,-1.3109888,0.45309106,0.627959,0.40244466,8.5268,3.5058594,2.8633156,1,0,0,0,0,0,0,0,0,0,0,0,0,0,0,0,0,0,0,0,0
453,-0.8766605,-0.53784573,-1.3134054,0.39024046,0.13900262,0.24158973,8.991275,3.9068882,1.5345336,1,0,0,0,0,0,0,0,0,0,0,0,0,0,0,0,0,0,0,0,0
454,-0.89148206,-0.5387215,-1.3161476,0.3913057,0.25192067,-0.085446455,8.421454,4.8932996,1.4351742,1,0,0,0,0,0,0,0,0,0,0,0,0,0,0,0,0,0,0,0,0
455,-0.89546293,-0.54470825,-1.3195473,0.091966406,-0.08683343,-0.14297074,8.555531,5.2488384,1.5010148,1,0,0,0,0,0,0,0,0,0,0,0,0,0,0,0,0,0,0,0,0
456,-0.8869459,-0.5524024,-1.3243779,-0.11682542,-0.23383993,-0.35495836,7.794174,5.554099,1.3382092,1,0,0,0,0,0,0,0,0,0,0,0,0,0,0,0,0,0,0,0,0
457,-0.87564796,-0.56415904,-1.3263394,0.0173979,-0.02398283,-0.26014984,7.3835683,5.757606,1.51538,1,0,0,0,0,0,0,0,0,0,0,0,0,0,0,0,0,0,0,0,0
458,-0.8702436,-0.5715539,-1.3268527,0.0088757835,0.02395407,-0.26228034,7.830087,5.819855,1.3753192,1,0,0,0,0,0,0,0,0,0,0,0,0,0,0,0,0,0,0,0,0
459,-0.8590005,-0.5810602,-1.3264363,-0.17541496,-0.092159756,-0.23458348,7.566725,6.025757,1.2975076,1,0,0,0,0,0,0,0,0,0,0,0,0,0,0,0,0,0,0,0,0
460,-0.8462011,-0.5854237,-1.3251764,-0.27235404,-0.10068187,-0.27080247,8.004864,5.6295166,1.5800235,1,0,0,0,0,0,0,0,0,0,0,0,0,0,0,0,0,0,0,0,0
461,-0.83170134,-0.5933167,-1.3226799,-0.27448454,-0.13796613,-0.3922426,8.343643,5.2847514,1.4232032,1,0,0,0,0,0,0,0,0,0,0,0,0,0,0,0,0,0,0,0,0
462,-0.812387,-0.60574186,-1.319884,-0.45771003,-0.24875362,-0.6223397,8.425046,4.9268184,1.348983,1,0,0,0,0,0,0,0,0,0,0,0,0,0,0,0,0,0,0,0,0
463,-0.7957237,-0.618285,-1.3161067,-0.577013,-0.24766733,-0.90997607,8.9302225,4.487482,1.1574469,1,0,0,0,0,0,0,0,0,0,0,0,0,0,0,0,0,0,0,0,0
464,-0.76618195,-0.64627784,-1.3010705,-0.70590997,-0.04739761,-1.4298251,9.532365,4.179827,1.1191397,1,0,0,0,0,0,0,0,0,0,0,0,0,0,0,0,0,0,0,0,0
465,-0.739949,-0.6791907,-1.2797155,-0.9210934,0.09747835,-2.31506,9.863961,3.6866217,0.6438906,1,0,0,0,0,0,0,0,0,0,0,0,0,0,0,0,0,0,0,0,0
466,-0.6677144,-0.75088227,-1.2186555,-1.2268243,0.3350323,-3.0767238,7.4817305,3.8422449,1.1849802,1,0,0,0,0,0,0,0,0,0,0,0,0,0,0,0,0,0,0,0,0
467,-0.59284526,-0.8115237,-1.1474296,-1.5368162,0.4191882,-3.7414489,6.5755253,3.9451954,1.7811364,1,0,0,0,0,0,0,0,0,0,0,0,0,0,0,0,0,0,0,0,0
468,-0.44383368,-0.89947426,-1.0021142,-1.6689091,0.58536947,-4.3976517,5.0935144,3.309535,1.9642929,1,0,0,0,0,0,0,0,0,0,0,0,0,0,0,0,0,0,0,0,0
469,-0.17747718,-0.9853608,-0.7639846,-1.7488039,1.147829,-5.1369452,2.5173535,3.2796075,2.797475,1,0,0,0,0,0,0,0,0,0,0,0,0,0,0,0,0,0,0,0,0
470,0.11901003,-1.0224868,-0.49810907,-2.0289683,0.84635925,-5.535354,-2.5392005,4.910059,5.323358,0,0,0,0,0,0,0,0,0,0,0,0,0,0,0,0,0,0,0,0,0
471,0.50150377,-1.0078422,-0.16964968,-1.9980757,-0.13581456,-4.6863384,-6.7194767,8.867674,8.389133,0,0,0,0,0,0,0,0,0,0,0,0,0,0,0,0,0,0,0,0,0
472,0.7008046,-0.97079235,-0.025015138,-1.5698395,-1.1744474,-2.6953592,-8.173954,13.611785,8.374768,0,0,0,0,0,0,0,0,0,0,0,0,0,0,0,0,0,0,0,0,0
473,0.80440134,-0.922194,0.016845651,-1.1021883,-1.1275758,-0.63726836,-5.0794487,10.633398,9.720309,0,0,0,0,0,0,0,0,0,0,0,0,0,0,0,0,0,0,0,0,0
474,0.8347418,-0.9019693,0.008538408,-0.33839375,-0.9486113,-0.20370573,-3.590255,8.771906,7.867197,0,0,0,0,0,0,0,0,0,0,0,0,0,0,0,0,0,0,0,0,0
475,0.84774977,-0.9005057,-0.0032937396,0.13671418,-0.41917488,0.15209259,-2.7893946,9.2208185,6.571934,0,0,0,0,0,0,0,0,0,0,0,0,0,0,0,0,0,0,0,0,0
476,0.8312195,-0.9067596,-0.026242305,0.2581543,-0.1645767,0.58139414,-1.0200796,8.020126,6.627001,0,0,0,0,0,0,0,0,0,0,0,0,0,0,0,0,0,0,0,0,0
477,0.80171835,-0.9148677,-0.05376076,0.4083566,-0.27855998,0.50362986,0.8869021,6.7224693,5.4119434,0,0,0,0,0,0,0,0,0,0,0,0,0,0,0,0,0,0,0,0,0
478,0.7694947,-0.9262357,-0.083008155,0.22193533,-0.35525903,0.12226519,1.4627076,6.7691565,4.366874,0,0,0,0,0,0,0,0,0,0,0,0,0,0,0,0,0,0,0,0,0
479,0.76280946,-0.92990035,-0.09165399,-0.033729468,-0.23914866,-0.024738636,0.5816414,7.580791,4.388422,0,0,0,0,0,0,0,0,0,0,0,0,0,0,0,0,0,0,0,0,0
480,0.75644696,-0.9299337,-0.09512485,0.041904308,0.15499917,0.04876461,0.7624036,7.224055,5.0516157,0,0,0,0,0,0,0,0,0,0,0,0,0,0,0,0,0,0,0,0,0
481,0.7593225,-0.9316148,-0.085759416,0.047230627,0.17417394,-0.18346304,0.6642413,7.1893387,5.518485,0,0,0,0,0,0,0,0,0,0,0,0,0,0,0,0,0,0,0,0,0
482,0.77806145,-0.93278223,-0.06819667,-0.02201156,0.109192796,-0.3698843,-0.5101146,8.077588,5.6896706,0,0,0,0,0,0,0,0,0,0,0,0,0,0,0,0,0,0,0,0,0
483,0.7990784,-0.9334918,-0.047914263,0.055752743,0.19121817,-0.08545871,-1.1409868,8.527698,6.3121634,0,0,0,0,0,0,0,0,0,0,0,0,0,0,0,0,0,0,0,0,0
484,0.8012328,-0.9365106,-0.044458844,0.185715,0.12623703,0.08072254,-0.35090017,7.7088804,5.980566,0,0,0,0,0,0,0,0,0,0,0,0,0,0,0,0,0,0,0,0,0
485,0.80283254,-0.9425619,-0.041588396,0.14310443,0.021841116,-0.0588271,-0.07317279,7.6454344,5.5089083,0,0,0,0,0,0,0,0,0,0,0,0,0,0,0,0,0,0,0,0,0
486,0.8108051,-0.94456357,-0.036970206,0.039773777,-0.07296742,-0.12700403,-0.2240075,7.9219646,5.6286187,0,0,0,0,0,0,0,0,0,0,0,0,0,0,0,0,0,0,0,0,0
487,0.8170041,-0.9482878,-0.034324646,0.18038869,-0.011182081,-0.03326075,-0.049230773,7.7172604,5.5579896,0,0,0,0,0,0,0,0,0,0,0,0,0,0,0,0,0,0,0,0,0
488,0.818997,-0.9560569,-0.03105898,0.23578243,0.05592958,-0.105698735,0.27518356,7.415591,5.1797056,0,0,0,0,0,0,0,0,0,0,0,0,0,0,0,0,0,0,0,0,0
489,0.8296964,-0.9608323,-0.020449452,0.08344962,0.033559024,-0.23779152,-0.32815528,7.9315414,5.1198506,0,0,0,0,0,0,0,0,0,0,0,0,0,0,0,0,0,0,0,0,0
490,0.8442116,-0.96181345,-0.009105092,0.028055869,-0.0015947009,-0.2175515,-0.18689737,7.7447934,5.408352,0,0,0,0,0,0,0,0,0,0,0,0,0,0,0,0,0,0,0,0,0
491,0.85764,-0.9646944,0.0033019613,0.14310443,0.10280121,-0.21329044,-0.6597522,8.149414,5.3293433,0,0,0,0,0,0,0,0,0,0,0,0,0,0,0,0,0,0,0,0,0
492,0.8702405,-0.9704792,0.01764014,0.13884337,0.11558439,-0.04710919,-0.99733466,8.390031,5.289839,0,0,0,0,0,0,0,0,0,0,0,0,0,0,0,0,0,0,0,0,0
493,0.87244797,-0.9726922,0.019758463,0.07279698,-0.01331261,0.02000247,-0.55201316,7.846547,5.416732,1,0,0,0,0,0,0,0,0,0,0,0,0,0,0,0,0,0,0,0,0
494,0.87696034,-0.9734931,0.020126097,-0.0081631215,-0.1272959,-0.08119765,-0.5017349,8.057237,5.4478564,1,0,0,0,0,0,0,0,0,0,0,0,0,0,0,0,0,0,0,0,0
495,0.88438594,-0.97614884,0.02355811,0.129256,-0.028226312,-0.04710919,-0.7435493,8.200889,5.320964,1,0,0,0,0,0,0,0,0,0,0,0,0,0,0,0,0,0,0,0,0
496,0.8835686,-0.9803694,0.024168588,0.13457352,0.07614164,0.030674823,-0.21443069,7.664588,5.109077,1,0,0,0,0,0,0,0,0,0,0,0,0,0,0,0,0,0,0,0,0
497,0.89109087,-0.9819117,0.030831529,0.0184597,0.012225773,-0.117396936,-0.8608652,8.081179,5.5101056,1,0,0,0,0,0,0,0,0,0,0,0,0,0,0,0,0,0,0,0,0
498,0.9036917,-0.9814691,0.039036434,0.03230814,-0.064473264,0.13400547,-2.7379193,9.5153055,6.2930098,1,0,0,0,0,0,0,0,0,0,0,0,0,0,0,0,0,0,0,0,0
499,0.88153464,-0.9872415,0.014401539,0.50741607,-0.22000188,1.2844911,-6.26817,12.385954,8.274212,1,0,0,0,0,0,0,0,0,0,0,0,0,0,0,0,0,0,0,0,0
500,0.74630666,-1.0119449,-0.11053794,1.2083601,-0.2189366,3.0230026,-4.3899183,10.202441,7.912687,1,0,0,0,0,0,0,0,0,0,0,0,0,0,0,0,0,0,0,0,0
501,0.58739185,-1.0268849,-0.26030257,1.514091,-0.5939097,3.7345994,-2.982128,8.372074,6.4701805,1,0,0,0,0,0,0,0,0,0,0,0,0,0,0,0,0,0,0,0,0
502,0.3305213,-1.0210124,-0.50587857,1.703708,-0.5086885,4.505851,-3.7758057,9.050831,5.8560677,1,0,0,0,0,0,0,0,0,0,0,0,0,0,0,0,0,0,0,0,0
503,0.1038029,-0.97627115,-0.7186607,2.5601807,-0.2040229,5.780972,-1.0978911,3.97632,7.879168,1,0,0,0,0,0,0,0,0,0,0,0,0,0,0,0,0,0,0,0,0
504,-0.18754032,-0.89199305,-0.9970481,2.6485975,-1.3939233,5.132226,3.1625907,4.239682,4.1597757,1,0,0,0,0,0,0,0,0,0,0,0,0,0,0,0,0,0,0,0,0
505,-0.40336013,-0.8013762,-1.1788211,2.83928,-0.3627473,4.6017246,11.167604,1.9520226,-3.5914521,1,0,0,0,0,0,0,0,0,0,0,0,0,0,0,0,0,0,0,0,0
506,-0.59945756,-0.70028174,-1.2700889,2.4110436,2.3600686,3.116746,10.358364,2.1004632,-2.2770355,1,0,0,0,0,0,0,0,0,0,0,0,0,0,0,0,0,0,0,0,0
507,-0.7478132,-0.62915945,-1.2516149,1.7026428,2.24502,2.4072797,8.847623,1.8801966,3.2751184,1,0,0,0,0,0,0,0,0,0,0,0,0,0,0,0,0,0,0,0,0
508,-0.80501866,-0.5771535,-1.2704155,0.08557136,-0.19976185,1.5241755,12.233024,1.3833997,0.09322423,1,0,0,0,0,0,0,0,0,0,0,0,0,0,0,0,0,0,0,0,0
509,-0.84217197,-0.5467314,-1.2647865,0.69596785,1.1222314,0.5302838,9.161263,2.6954222,2.3868694,1,0,0,0,0,0,0,0,0,0,0,0,0,0,0,0,0,0,0,0,0
510,-0.8580413,-0.54157346,-1.2525575,0.42752123,0.45857158,0.38221207,7.6361566,4.3462243,2.7005098,1,0,0,0,0,0,0,0,0,0,0,0,0,0,0,0,0,0,0,0,0
511,-0.8712578,-0.53133017,-1.2543097,0.28158,0.21036495,0.36303732,8.354417,4.8801312,2.2551885,1,0,0,0,0,0,0,0,0,0,0,0,0,0,0,0,0,0,0,0,0
512,-0.8756207,-0.5285535,-1.2525624,0.42539072,0.3413925,0.22029188,8.290971,5.631911,2.9375358,1,0,0,0,0,0,0,0,0,0,0,0,0,0,0,0,0,0,0,0,0
513,-0.8913174,-0.52717483,-1.2553859,0.42538857,-0.047435958,0.066898875,9.624541,4.997447,3.1589994,1,0,0,0,0,0,0,0,0,0,0,0,0,0,0,0,0,0,0,0,0
514,-0.8947425,-0.5375348,-1.2782817,0.15481141,-0.8122958,-0.4454933,8.2454815,5.0010386,2.109142,1,0,0,0,0,0,0,0,0,0,0,0,0,0,0,0,0,0,0,0,0
515,-0.8877339,-0.5530126,-1.2946712,0.39875698,-0.3968427,-0.3261837,6.5300355,5.8426003,2.3365912,1,0,0,0,0,0,0,0,0,0,0,0,0,0,0,0,0,0,0,0,0
516,-0.90177286,-0.56335884,-1.3170242,0.48184758,-0.46395436,-0.13017505,8.153304,5.443966,1.6470611,1,0,0,0,0,0,0,0,0,0,0,0,0,0,0,0,0,0,0,0,0
517,-0.9124918,-0.5720017,-1.3358995,0.51700133,-0.20935616,-0.21859199,7.8205104,5.8234468,0.7923311,1,0,0,0,0,0,0,0,0,0,0,0,0,0,0,0,0,0,0,0,0
518,-0.9260117,-0.58486104,-1.3517822,0.40621382,-0.061284397,-0.1642635,7.2447047,6.2029276,0.60797757,1,0,0,0,0,0,0,0,0,0,0,0,0,0,0,0,0,0,0,0,0
519,-0.9377686,-0.59045243,-1.3638912,0.253881,-0.09217706,-0.05347601,8.000075,5.744438,0.36137483,1,0,0,0,0,0,0,0,0,0,0,0,0,0,0,0,0,0,0,0,0
520,-0.9410712,-0.5936679,-1.3708398,-0.002847718,-0.063414924,-0.17917721,8.296956,5.4272065,0.24166474,1,0,0,0,0,0,0,0,0,0,0,0,0,0,0,0,0,0,0,0,0
521,-0.9359753,-0.60124105,-1.3715618,-0.1679637,-0.047435958,-0.33577108,8.352023,5.257218,0.5493196,1,0,0,0,0,0,0,0,0,0,0,0,0,0,0,0,0,0,0,0,0
522,-0.9292442,-0.60862935,-1.3690242,-0.3533197,-0.082589686,-0.54456294,8.986486,4.83943,0.71332246,1,0,0,0,0,0,0,0,0,0,0,0,0,0,0,0,0,0,0,0,0
523,-0.9081443,-0.6247075,-1.362529,-0.7751644,-0.4511712,-0.95468974,9.793332,3.9224505,1.1562498,1,0,0,0,0,0,0,0,0,0,0,0,0,0,0,0,0,0,0,0,0
524,-0.88049203,-0.6458437,-1.3573629,-1.1043311,-0.74411887,-1.6268716,9.735871,3.595642,1.2843395,0,0,0,0,0,0,0,0,0,0,0,0,0,0,0,0,0,0,0,0,0
525,-0.824474,-0.6975504,-1.3402001,-1.1352237,-0.5758071,-2.3086407,8.697985,4.0038533,1.3956699,0,0,0,0,0,0,0,0,0,0,0,0,0,0,0,0,0,0,0,0,0
526,-0.73860806,-0.7681583,-1.301155,-1.3301672,-0.6184177,-2.805054,7.1106296,4.5736732,2.6226983,0,0,0,0,0,0,0,0,0,0,0,0,0,0,0,0,0,0,0,0,0
527,-0.6480644,-0.8270041,-1.2676162,-1.7168581,-1.4716945,-3.1384819,6.2259717,5.3769283,2.3748984,0,0,0,0,0,0,0,0,0,0,0,0,0,0,0,0,0,0,0,0,0
528,-0.51482147,-0.90937865,-1.2098368,-1.7679908,-1.2085742,-3.4591265,5.7794533,5.3829136,0.66065,0,0,0,0,0,0,0,0,0,0,0,0,0,0,0,0,0,0,0,0,0
529,-0.4034964,-0.97544134,-1.1241299,-1.7285739,0.13899224,-4.064202,5.112668,4.9543514,-0.3760393,0,0,0,0,0,0,0,0,0,0,0,0,0,0,0,0,0,0,0,0,0
530,-0.11512541,-1.0636775,-0.86832047,-2.0651975,0.73767084,-4.5137434,0.29673138,5.9910407,4.2148423,0,0,0,0,0,0,0,0,0,0,0,0,0,0,0,0,0,0,0,0,0
531,0.16636616,-1.0918173,-0.62594146,-2.2143345,-0.66741294,-3.6317043,-4.169652,9.418341,6.716783,0,0,0,0,0,0,0,0,0,0,0,0,0,0,0,0,0,0,0,0,0
532,0.43830115,-1.0821756,-0.41981953,-2.0449574,-1.130803,-2.253252,-1.5970821,10.477775,3.9610572,0,0,0,0,0,0,0,0,0,0,0,0,0,0,0,0,0,0,0,0,0
533,0.6263909,-1.0347996,-0.2897005,-2.2090082,-0.85703,-1.5224807,-2.4170961,10.69445,5.929091,0,0,0,0,0,0,0,0,0,0,0,0,0,0,0,0,0,0,0,0,0
534,0.71743226,-0.98841715,-0.2359028,-2.0971556,-0.71748036,-0.82047147,-1.8628385,9.679309,6.476166,0,0,0,0,0,0,0,0,0,0,0,0,0,0,0,0,0,0,0,0,0
535,0.78493947,-0.9268046,-0.20848827,-1.7924898,-0.5928444,-0.26866448,-0.6489783,8.04766,7.605032,0,0,0,0,0,0,0,0,0,0,0,0,0,0,0,0,0,0,0,0,0
536,0.8121673,-0.89534956,-0.2015568,-0.7037896,-0.108149104,-0.28677398,0.7576152,7.572411,7.223157,0,0,0,0,0,0,0,0,0,0,0,0,0,0,0,0,0,0,0,0,0
537,0.838764,-0.889178,-0.1728255,-0.050782487,0.42235258,-0.40821412,0.07047931,7.9674544,6.307375,0,0,0,0,0,0,0,0,0,0,0,0,0,0,0,0,0,0,0,0,0
538,0.85463434,-0.88828146,-0.15105887,-0.31816387,0.12940486,-0.14722434,0.015412673,7.7052894,5.790227,0,0,0,0,0,0,0,0,0,0,0,0,0,0,0,0,0,0,0,0,0
539,0.8633493,-0.8711792,-0.14393179,-0.59939367,0.0473795,-0.15255065,1.2089223,6.979846,6.1481605,0,0,0,0,0,0,0,0,0,0,0,0,0,0,0,0,0,0,0,0,0
540,0.8817832,-0.85783774,-0.12948163,-0.2712922,0.015421567,-0.101417966,-0.21323359,8.137443,7.1860466,0,0,0,0,0,0,0,0,0,0,0,0,0,0,0,0,0,0,0,0,0
541,0.88007665,-0.8557321,-0.13118355,-0.0742183,0.01861736,0.26609826,-0.16295536,7.5628343,6.4594064,0,0,0,0,0,0,0,0,0,0,0,0,0,0,0,0,0,0,0,0,0
542,0.87609106,-0.85685194,-0.13479795,0.13457352,0.066554256,-0.117396936,1.3406034,6.3094697,6.278644,0,0,0,0,0,0,0,0,0,0,0,0,0,0,0,0,0,0,0,0,0
543,0.88590634,-0.8572601,-0.13078424,-0.1850058,-0.21467555,-0.34642878,0.6402993,7.7567644,5.500529,0,0,0,0,0,0,0,0,0,0,0,0,0,0,0,0,0,0,0,0,0
544,0.90157086,-0.8587105,-0.113260396,0.09728927,0.28599873,8.4741786E-4,-0.3784335,8.062025,6.7215714,0,0,0,0,0,0,0,0,0,0,0,0,0,0,0,0,0,0,0,0,0
545,0.8857838,-0.8660361,-0.11254525,0.26240525,0.40317783,0.18194237,0.9958383,6.8050694,5.094712,0,0,0,0,0,0,0,0,0,0,0,0,0,0,0,0,0,0,0,0,0
546,0.88731426,-0.8716514,-0.09666605,0.17397845,0.5885024,-0.07263346,0.115969144,7.310246,6.1517515,0,0,0,0,0,0,0,0,0,0,0,0,0,0,0,0,0,0,0,0,0
547,0.8920321,-0.87301177,-0.08521349,-0.053988133,0.006868026,0.010457168,-0.07796119,7.5771995,6.2594905,0,0,0,0,0,0,0,0,0,0,0,0,0,0,0,0,0,0,0,0,0
548,0.89441663,-0.87029946,-0.08914055,-0.028421788,-0.19446695,-0.0044565336,0.4966472,7.061249,6.715586,0,0,0,0,0,0,0,0,0,0,0,0,0,0,0,0,0,0,0,0,0
549,0.89993167,-0.87057656,-0.09297966,-0.0017901768,-0.27223125,-0.16211566,0.4978443,7.3473563,6.3983545,0,0,0,0,0,0,0,0,0,0,0,0,0,0,0,0,0,0,0,0,0
550,0.90517914,-0.8718668,-0.092695735,0.057864632,-0.1092458,-0.18235569,0.5852327,7.1630025,6.1146417,0,0,0,0,0,0,0,0,0,0,0,0,0,0,0,0,0,0,0,0,0
551,0.91450626,-0.87631935,-0.08540374,0.16865213,0.04628281,-0.17063779,0.1961749,7.4096055,6.0236616,0,0,0,0,0,0,0,0,0,0,0,0,0,0,0,0,0,0,0,0,0
552,0.9202375,-0.8835832,-0.07879705,0.19847953,4.764395E-4,-0.09926507,0.06928221,7.501782,5.9338794,0,0,0,0,0,0,0,0,0,0,0,0,0,0,0,0,0,0,0,0,0
553,0.9227185,-0.88916403,-0.07584893,0.07703939,-0.07515734,-0.120570354,-0.04683657,7.5556517,5.1904798,0,0,0,0,0,0,0,0,0,0,0,0,0,0,0,0,0,0,0,0,0
554,0.9302667,-0.8893222,-0.07002239,-0.028421788,0.011129084,-0.1376146,-0.034865562,7.501782,5.9159226,1,0,0,0,0,0,0,0,0,0,0,0,0,0,0,0,0,0,0,0,0
555,0.9363964,-0.8917163,-0.06254905,0.17184792,0.1006113,-0.108852446,-0.0911293,7.6597996,6.1098533,1,0,0,0,0,0,0,0,0,0,0,0,0,0,0,0,0,0,0,0,0
556,0.9387929,-0.89718723,-0.058228597,0.08556151,-0.044264667,-0.028957615,0.054917,7.629872,5.9362736,1,0,0,0,0,0,0,0,0,0,0,0,0,0,0,0,0,0,0,0,0
557,0.93853146,-0.89669967,-0.060396146,-0.06890184,-0.114572115,-0.0204355,0.31708208,7.392846,6.012888,1,0,0,0,0,0,0,0,0,0,0,0,0,0,0,0,0,0,0,0,0
558,0.94181925,-0.89621735,-0.059070177,0.097279415,0.033499636,-0.077959776,0.1949778,7.406014,6.252308,1,0,0,0,0,0,0,0,0,0,0,0,0,0,0,0,0,0,0,0,0
559,0.9450167,-0.9029477,-0.05279938,0.18356584,0.056935456,-0.026827088,-0.27787703,7.9135847,5.7914243,1,0,0,0,0,0,0,0,0,0,0,0,0,0,0,0,0,0,0,0,0
560,0.94316477,-0.9055193,-0.053222,0.034428813,-0.024024643,0.113787815,-0.27548283,7.7471876,5.905149,1,0,0,0,0,0,0,0,0,0,0,0,0,0,0,0,0,0,0,0,0
561,0.94049376,-0.906705,-0.055791035,0.10047521,-0.05065625,0.35134178,-2.4230819,9.423129,6.9574003,1,0,0,0,0,0,0,0,0,0,0,0,0,0,0,0,0,0,0,0,0
562,0.9137874,-0.91010076,-0.080638,0.45946932,-0.070896275,1.3857136,-2.2327428,9.466225,8.2694235,1,0,0,0,0,0,0,0,0,0,0,0,0,0,0,0,0,0,0,0,0
563,0.82751256,-0.92849356,-0.15269604,1.1945117,-0.10708384,2.0110013,-3.5842695,9.651775,8.952968,1,0,0,0,0,0,0,0,0,0,0,0,0,0,0,0,0,0,0,0,0
564,0.6647175,-0.95491725,-0.28857666,1.7750808,-0.10601858,3.7282076,-6.128109,11.248708,7.747487,1,0,0,0,0,0,0,0,0,0,0,0,0,0,0,0,0,0,0,0,0
565,0.45454288,-0.9508916,-0.4659179,2.4813511,0.3829378,5.434761,-1.2092215,5.36376,9.140912,1,0,0,0,0,0,0,0,0,0,0,0,0,0,0,0,0,0,0,0,0
566,0.14712068,-0.93046474,-0.7269856,3.371912,-0.112410165,4.791342,1.0580875,4.662259,7.5140524,1,0,0,0,0,0,0,0,0,0,0,0,0,0,0,0,0,0,0,0,0
567,-0.100919105,-0.90177476,-0.927087,3.7681904,-0.03890692,4.6571183,4.684106,4.2983403,3.2631474,1,0,0,0,0,0,0,0,0,0,0,0,0,0,0,0,0,0,0,0,0
568,-0.401734,-0.82461953,-1.1388158,3.209992,0.4191568,4.277884,7.7139683,3.3490393,0.017806875,1,0,0,0,0,0,0,0,0,0,0,0,0,0,0,0,0,0,0,0,0
569,-0.58507514,-0.7509631,-1.2236016,2.8307579,1.7081268,3.487458,10.312874,1.9017444,1.2340614,1,0,0,0,0,0,0,0,0,0,0,0,0,0,0,0,0,0,0,0,0
570,-0.76151454,-0.67652553,-1.2734315,2.1766853,0.93794054,2.2496207,11.627291,1.3558663,1.454328,1,0,0,0,0,0,0,0,0,0,0,0,0,0,0,0,0,0,0,0,0
571,-0.8699247,-0.635152,-1.3149562,1.5258088,0.47987685,1.0320234,11.1113405,1.9592052,0.014215573,1,0,0,0,0,0,0,0,0,0,0,0,0,0,0,0,0,0,0,0,0
572,-0.91793156,-0.6279684,-1.3307639,1.1124862,0.5118348,0.38221207,7.5403886,4.163068,0.41285014,1,0,0,0,0,0,0,0,0,0,0,0,0,0,0,0,0,0,0,0,0
573,-0.96109927,-0.6157767,-1.3427721,0.49995923,0.09957746,0.4322795,9.181614,4.1355343,0.84620064,1,0,0,0,0,0,0,0,0,0,0,0,0,0,0,0,0,0,0,0,0
574,-0.9786376,-0.61066294,-1.3569052,0.10581139,-0.34889886,-0.22605391,9.720309,4.627543,0.015412673,1,0,0,0,0,0,0,0,0,0,0,0,0,0,0,0,0,0,0,0,0
575,-0.9716579,-0.6293211,-1.3678693,-0.06782672,-0.14649862,-0.435911,5.942259,6.7847185,-0.013317747,1,0,0,0,0,0,0,0,0,0,0,0,0,0,0,0,0,0,0,0,0
576,-0.9631765,-0.63481903,-1.366154,-0.1999195,-0.048494298,-0.04922001,7.3823714,6.487838,1.004218,1,0,0,0,0,0,0,0,0,0,0,0,0,0,0,0,0,0,0,0,0
577,-0.9488166,-0.6365017,-1.3654876,-0.32988176,-0.16354285,-0.17918228,8.136545,6.371719,0.92880064,1,0,0,0,0,0,0,0,0,0,0,0,0,0,0,0,0,0,0,0,0
578,-0.93088156,-0.64344996,-1.3592194,-0.2723575,0.0473795,-0.26120764,7.339276,6.242432,1.1849802,1,0,0,0,0,0,0,0,0,0,0,0,0,0,0,0,0,0,0,0,0
579,-0.9146377,-0.64927363,-1.3492415,-0.19991818,0.17947575,-0.20048995,6.955006,6.2328553,1.8781016,1,0,0,0,0,0,0,0,0,0,0,0,0,0,0,0,0,0,0,0,0
580,-0.90026945,-0.65257365,-1.3419023,-0.27235615,-0.0676656,-0.1333783,7.5763016,5.9072437,1.5548843,1,0,0,0,0,0,0,0,0,0,0,0,0,0,0,0,0,0,0,0,0
581,-0.8872,-0.65485823,-1.3374333,-0.23081085,0.040991373,-0.2292521,7.745093,5.8904843,1.7188872,1,0,0,0,0,0,0,0,0,0,0,0,0,0,0,0,0,0,0,0,0
582,-0.87427783,-0.6624597,-1.3289818,-0.1423939,0.06655772,-0.3432354,7.759458,5.9168205,1.8062755,1,0,0,0,0,0,0,0,0,0,0,0,0,0,0,0,0,0,0,0,0
583,-0.8667698,-0.6689164,-1.3265129,-0.33627203,-0.19230154,-0.51900405,8.56391,5.420024,1.2795511,1,0,0,0,0,0,0,0,0,0,0,0,0,0,0,0,0,0,0,0,0
584,-0.8381501,-0.68653214,-1.318311,-0.5141712,-0.2743269,-0.869476,7.771429,5.459528,1.989432,1,0,0,0,0,0,0,0,0,0,0,0,0,0,0,0,0,0,0,0,0
585,-0.8112561,-0.7119166,-1.307874,-0.39273104,-0.15608254,-1.0420488,8.004864,5.3242555,1.5919945,1,0,0,0,0,0,0,0,0,0,0,0,0,0,0,0,0,0,0,0,0
586,-0.79460263,-0.7334423,-1.2956166,-0.63241553,-0.190171,-1.5128957,9.300127,4.5281835,1.4818612,1,0,0,0,0,0,0,0,0,0,0,0,0,0,0,0,0,0,0,0,0
587,-0.7436647,-0.7808797,-1.265934,-1.1139151,-0.6162768,-2.3491282,9.297732,4.13314,1.7236756,1,0,0,0,0,0,0,0,0,0,0,0,0,0,0,0,0,0,0,0,0
588,-0.67796314,-0.8324273,-1.2300521,-1.4899534,-0.8026981,-3.2599294,7.2889977,4.246865,1.716493,1,0,0,0,0,0,0,0,0,0,0,0,0,0,0,0,0,0,0,0,0
589,-0.5392379,-0.9192193,-1.1389339,-1.5581303,-0.29776272,-3.8138669,5.444265,4.5281835,1.9547161,1,0,0,0,0,0,0,0,0,0,0,0,0,0,0,0,0,0,0,0,0
590,-0.3689191,-1.0117275,-0.97531146,-1.2406815,0.39252862,-4.443438,4.758326,4.1343374,3.0440779,1,0,0,0,0,0,0,0,0,0,0,0,0,0,0,0,0,0,0,0,0
591,-0.119758666,-1.0833011,-0.76651204,-1.5826313,-0.12305935,-5.15397,-0.45504797,5.683386,4.2986393,1,0,0,0,0,0,0,0,0,0,0,0,0,0,0,0,0,0,0,0,0
592,0.29703447,-1.1203921,-0.42403826,-2.0971541,-1.0572963,-4.4008274,-4.7227125,9.74036,4.670938,0,0,0,0,0,0,0,0,0,0,0,0,0,0,0,0,0,0,0,0,0
593,0.5428899,-1.0981205,-0.23118144,-1.9565393,-0.79737175,-2.714514,-4.7765822,11.716774,5.6477723,0,0,0,0,0,0,0,0,0,0,0,0,0,0,0,0,0,0,0,0,0
594,0.72138095,-1.0524454,-0.103740506,-1.4228418,-0.6226684,-1.7025127,-2.425476,9.473407,6.1876645,0,0,0,0,0,0,0,0,0,0,0,0,0,0,0,0,0,0,0,0,0
595,0.82460374,-1.0271673,-0.028258152,-0.5866092,-0.14436464,-1.5160915,-4.134936,10.573543,7.212383,0,0,0,0,0,0,0,0,0,0,0,0,0,0,0,0,0,0,0,0,0
596,0.9022265,-1.0236498,0.03788471,0.18782476,0.065450646,-0.4710373,-3.6800377,10.932673,5.7555113,0,0,0,0,0,0,0,0,0,0,0,0,0,0,0,0,0,0,0,0,0
597,0.91014725,-1.0271851,0.041353088,-0.027358653,-0.21364863,0.103140235,-1.0919056,8.457068,4.7894506,0,0,0,0,0,0,0,0,0,0,0,0,0,0,0,0,0,0,0,0,0
598,0.9092723,-1.0216497,0.031314615,-0.22975889,-0.36278567,-0.09819474,0.017806875,7.784298,4.9259205,0,0,0,0,0,0,0,0,0,0,0,0,0,0,0,0,0,0,0,0,0
599,0.92209864,-1.0200449,0.035535943,0.06744988,-0.09220849,-0.2249612,-0.42272624,8.277503,4.635025,0,0,0,0,0,0,0,0,0,0,0,0,0,0,0,0,0,0,0,0,0
600,0.92596614,-1.0247525,0.040660337,0.14095312,0.11125702,0.031767517,-0.29942486,8.240394,4.3537064,0,0,0,0,0,0,0,0,0,0,0,0,0,0,0,0,0,0,0,0,0
601,0.9215565,-1.0272044,0.042006746,0.019512981,0.13149704,-0.012973589,0.09561843,7.7052894,4.7966332,0,0,0,0,0,0,0,0,0,0,0,0,0,0,0,0,0,0,0,0,0
602,0.9316899,-1.0268114,0.052184995,-0.0039228364,0.046275884,-0.2558539,-0.6226421,8.020126,4.912752,0,0,0,0,0,0,0,0,0,0,0,0,0,0,0,0,0,0,0,0,0
603,0.95132655,-1.0252868,0.06624145,-0.122167185,-0.22110549,-0.1685022,-1.2714708,8.951471,4.7475524,0,0,0,0,0,0,0,0,0,0,0,0,0,0,0,0,0,0,0,0,0
604,0.955828,-1.0182508,0.061630752,-0.22869363,-0.19021282,0.033898044,-0.8500912,8.333767,5.1198506,0,0,0,0,0,0,0,0,0,0,0,0,0,0,0,0,0,0,0,0,0
605,0.95704585,-1.015879,0.06046922,0.024839303,0.034557976,0.007266435,-0.6549638,8.157793,5.2132244,0,0,0,0,0,0,0,0,0,0,0,0,0,0,0,0,0,0,0,0,0
606,0.9604211,-1.0189106,0.06605396,0.09514675,0.08888646,-0.0044514737,-0.7890391,8.278701,4.978593,0,0,0,0,0,0,0,0,0,0,0,0,0,0,0,0,0,0,0,0,0
607,0.95900744,-1.019847,0.065397725,-0.049729206,-0.059185293,0.061594922,-0.45983636,8.220042,4.906767,0,0,0,0,0,0,0,0,0,0,0,0,0,0,0,0,0,0,0,0,0
608,0.95563227,-1.0165592,0.058906976,-0.124297716,-0.14014539,0.008331699,-0.31139585,7.9494977,4.864868,0,0,0,0,0,0,0,0,0,0,0,0,0,0,0,0,0,0,0,0,0
609,0.95750993,-1.013786,0.05816723,-0.07423029,-0.045336854,-0.03747467,-0.5053262,8.13026,4.7655087,0,0,0,0,0,0,0,0,0,0,0,0,0,0,0,0,0,0,0,0,0
610,0.9627355,-1.0113149,0.061195433,-0.076360814,-0.013378922,-0.057714697,-0.72439563,8.181735,5.3473,0,0,0,0,0,0,0,0,0,0,0,0,0,0,0,0,0,0,0,0,0
611,0.96654594,-1.010003,0.06010705,-0.0145754805,-0.19234334,0.02537593,-0.89797527,8.485799,5.255123,0,0,0,0,0,0,0,0,0,0,0,0,0,0,0,0,0,0,0,0,0
612,0.9635357,-1.0089315,0.05204498,-0.049729206,-0.20086546,0.06798651,-0.39639002,7.960272,5.086332,0,0,0,0,0,0,0,0,0,0,0,0,0,0,0,0,0,0,0,0,0
613,0.96166384,-1.0080719,0.04667143,0.0035329494,-0.06877614,-0.035341747,-0.16534956,7.950695,5.0599957,0,0,0,0,0,0,0,0,0,0,0,0,0,0,0,0,0,0,0,0,0
614,0.96474934,-1.0102087,0.051179342,0.11325519,0.0920788,-0.040668067,-0.5292682,8.307431,4.9295115,0,0,0,0,0,0,0,0,0,0,0,0,0,0,0,0,0,0,0,0,0
615,0.96522933,-1.0131466,0.05377443,0.064253025,0.0068576396,0.041357294,-0.45863926,8.079982,5.1641436,0,0,0,0,0,0,0,0,0,0,0,0,0,0,0,0,0,0,0,0,0
616,0.96415657,-1.014076,0.05002583,-0.0017933727,-0.15293202,-0.037472274,-0.2335843,7.880066,4.8157873,0,0,0,0,0,0,0,0,0,0,0,0,0,0,0,0,0,0,0,0,0
617,0.9689984,-1.0137347,0.052361127,-0.012446017,-0.051731903,-0.11310605,-0.5292682,8.245182,4.882825,1,0,0,0,0,0,0,0,0,0,0,0,0,0,0,0,0,0,0,0,0
618,0.9745564,-1.01547,0.059758198,0.08342778,0.116579875,-0.031080687,-0.67770875,8.362497,4.957045,1,0,0,0,0,0,0,0,0,0,0,0,0,0,0,0,0,0,0,0,0
619,0.9754125,-1.0171013,0.06320852,0.019511916,0.022836607,-1.8801917E-4,-0.550816,8.041675,4.966622,1,0,0,0,0,0,0,0,0,0,0,0,0,0,0,0,0,0,0,0,0
620,0.9781494,-1.0153061,0.06382999,-0.09021032,-0.09434248,-0.057712298,-0.57236385,8.181735,5.0157027,1,0,0,0,0,0,0,0,0,0,0,0,0,0,0,0,0,0,0,0,0
621,0.9831004,-1.014282,0.06648043,0.044012997,0.015379755,0.04774888,-1.1146505,8.734796,5.3425117,1,0,0,0,0,0,0,0,0,0,0,0,0,0,0,0,0,0,0,0,0
622,0.9759191,-1.0180306,0.060683113,0.13029942,-0.0016644757,0.24908386,-0.88241297,8.356512,5.241955,1,0,0,0,0,0,0,0,0,0,0,0,0,0,0,0,0,0,0,0,0
623,0.967159,-1.0211916,0.047370538,0.16119209,-0.168911,0.37371978,-2.4506152,9.589526,6.6581254,1,0,0,0,0,0,0,0,0,0,0,0,0,0,0,0,0,0,0,0,0
624,0.93904865,-1.0287968,0.01061913,0.52870834,-0.70047796,1.4879864,-5.1285295,12.077102,7.6696754,1,0,0,0,0,0,0,0,0,0,0,0,0,0,0,0,0,0,0,0,0
625,0.79860544,-1.045932,-0.13986507,0.781176,-1.0126004,2.8749607,-4.6652517,10.642975,4.9534535,1,0,0,0,0,0,0,0,0,0,0,0,0,0,0,0,0,0,0,0,0
626,0.6375098,-1.0437992,-0.29729334,1.1444311,0.007922905,4.0914927,-3.8200984,9.1094885,6.452224,1,0,0,0,0,0,0,0,0,0,0,0,0,0,0,0,0,0,0,0,0
627,0.3399164,-1.0288999,-0.5515867,2.6272793,0.77065223,4.8201337,-0.3532944,6.1670146,8.836849,1,0,0,0,0,0,0,0,0,0,0,0,0,0,0,0,0,0,0,0,0
628,0.008492676,-1.0028019,-0.83698165,3.0480587,-0.09860354,4.374853,3.033304,4.969914,4.5799584,1,0,0,0,0,0,0,0,0,0,0,0,0,0,0,0,0,0,0,0,0
629,-0.19256264,-0.9534048,-1.0208446,1.90397,-0.8219005,4.1798973,4.0268974,5.897667,1.3872902,1,0,0,0,0,0,0,0,0,0,0,0,0,0,0,0,0,0,0,0,0
630,-0.40893188,-0.84527326,-1.1826286,1.6451107,0.06546476,3.917842,8.445396,2.7241526,0.6450877,1,0,0,0,0,0,0,0,0,0,0,0,0,0,0,0,0,0,0,0,0
631,-0.55606055,-0.7757149,-1.2429765,2.4344716,1.6100981,2.6586995,10.472089,2.183063,1.4842554,1,0,0,0,0,0,0,0,0,0,0,0,0,0,0,0,0,0,0,0,0
632,-0.7075166,-0.73204666,-1.2880496,2.3417938,1.3491083,1.6978309,7.557148,4.0541315,0.3362357,1,0,0,0,0,0,0,0,0,0,0,0,0,0,0,0,0,0,0,0,0
633,-0.79316014,-0.7041955,-1.3106956,1.9199489,1.7443215,1.7702689,6.5503864,5.184195,0.16744448,1,0,0,0,0,0,0,0,0,0,0,0,0,0,0,0,0,0,0,0,0
634,-0.8896499,-0.6553377,-1.3075535,1.295704,1.7954541,1.9289933,8.201188,4.898088,0.6295254,1,0,0,0,0,0,0,0,0,0,0,0,0,0,0,0,0,0,0,0,0
635,-0.93834054,-0.60000867,-1.3048122,-0.09659658,0.4841137,1.3814474,10.7055235,3.8135145,-1.0356419,1,0,0,0,0,0,0,0,0,0,0,0,0,0,0,0,0,0,0,0,0
636,-0.94215834,-0.57580847,-1.2895827,-0.036941774,1.1424471,0.6794382,7.899519,4.6670475,0.8880992,1,0,0,0,0,0,0,0,0,0,0,0,0,0,0,0,0,0,0,0,0
637,-0.9461965,-0.55558515,-1.252568,-0.082748145,1.057226,0.6070002,7.9078984,4.9507604,2.4251766,1,0,0,0,0,0,0,0,0,0,0,0,0,0,0,0,0,0,0,0,0
638,-0.93813473,-0.53710407,-1.2369567,-0.82310694,0.26999554,0.33855355,9.878326,4.6347256,2.2144868,1,0,0,0,0,0,0,0,0,0,0,0,0,0,0,0,0,0,0,0,0
639,-0.8861271,-0.52275705,-1.2019488,-0.72297204,0.5245937,-0.01831003,7.8564234,4.7640123,5.812972,1,0,0,0,0,0,0,0,0,0,0,0,0,0,0,0,0,0,0,0,0
640,-0.85487694,-0.5200427,-1.1798149,0.11432578,0.43937257,0.058389008,7.1237974,5.0968065,6.132598,1,0,0,0,0,0,0,0,0,0,0,0,0,0,0,0,0,0,0,0,0
641,-0.8622632,-0.5202863,-1.1765614,0.38064188,0.007940481,0.00832158,9.033174,4.5425487,4.5392566,1,0,0,0,0,0,0,0,0,0,0,0,0,0,0,0,0,0,0,0,0
642,-0.86516416,-0.52994674,-1.1857119,0.21765642,-0.22854823,-0.34428096,8.246678,4.8813286,3.39004,1,0,0,0,0,0,0,0,0,0,0,0,0,0,0,0,0,0,0,0,0
643,-0.85902363,-0.54324424,-1.1923419,0.2570712,-0.21683031,-0.38369572,6.8364935,5.411644,2.8657098,1,0,0,0,0,0,0,0,0,0,0,0,0,0,0,0,0,0,0,0,0
644,-0.8651653,-0.5578924,-1.2054554,0.36253238,-0.2413314,-0.21964501,7.4242697,5.5864205,2.046893,1,0,0,0,0,0,0,0,0,0,0,0,0,0,0,0,0,0,0,0,0
645,-0.8716247,-0.5656871,-1.2188803,0.14521845,-0.25198403,-0.30060512,8.308928,5.4487543,1.337012,1,0,0,0,0,0,0,0,0,0,0,0,0,0,0,0,0,0,0,0,0
646,-0.8660411,-0.5773711,-1.225419,-0.15945251,-0.2551974,-0.3847485,7.739107,5.398476,1.7631799,1,0,0,0,0,0,0,0,0,0,0,0,0,0,0,0,0,0,0,0,0
647,-0.85504943,-0.5820258,-1.229337,-0.47264025,-0.4288355,-0.5338855,8.918252,4.5736732,2.249203,1,0,0,0,0,0,0,0,0,0,0,0,0,0,0,0,0,0,0,0,0
648,-0.8273095,-0.59816766,-1.2277024,-0.5014024,-0.46398923,-0.93442494,8.215553,4.5389576,2.869301,1,0,0,0,0,0,0,0,0,0,0,0,0,0,0,0,0,0,0,0,0
649,-0.79658854,-0.6236627,-1.2267479,-0.41937703,-0.58969045,-1.1730442,8.587852,4.5281835,3.2092776,1,0,0,0,0,0,0,0,0,0,0,0,0,0,0,0,0,0,0,0,0
650,-0.77626705,-0.6489959,-1.2311921,-0.61325514,-0.97318566,-1.6928931,9.430611,4.151097,2.5005941,1,0,0,0,0,0,0,0,0,0,0,0,0,0,0,0,0,0,0,0,0
651,-0.72985,-0.70124906,-1.2281028,-0.7432174,-0.88263816,-2.3874457,9.2725935,4.1163807,2.227655,1,0,0,0,0,0,0,0,0,0,0,0,0,0,0,0,0,0,0,0,0
652,-0.6762732,-0.7563414,-1.2083263,-0.91259444,-0.82617915,-3.190655,7.321319,4.5281835,2.9554923,1,0,0,0,0,0,0,0,0,0,0,0,0,0,0,0,0,0,0,0,0
653,-0.56483996,-0.84518945,-1.1648444,-1.4164646,-1.4727947,-3.686003,5.744737,4.519804,2.5927708,1,0,0,0,0,0,0,0,0,0,0,0,0,0,0,0,0,0,0,0,0
654,-0.41666284,-0.94088346,-1.083797,-1.2119337,-0.7494801,-3.9991906,4.644602,5.065682,1.7859248,1,0,0,0,0,0,0,0,0,0,0,0,0,0,0,0,0,0,0,0,0
655,-0.28964776,-1.0193276,-0.975251,-0.76239216,0.45533398,-4.307052,3.2846951,5.6283193,1.681777,1,0,0,0,0,0,0,0,0,0,0,0,0,0,0,0,0,0,0,0,0
656,-0.015818728,-1.1140925,-0.7221366,-0.8848976,0.47450873,-4.3411407,-1.1733085,7.6238866,3.3445501,1,0,0,0,0,0,0,0,0,0,0,0,0,0,0,0,0,0,0,0,0
657,0.24140403,-1.1472731,-0.49887994,-1.3972898,-0.55986303,-3.665763,-1.678485,8.385242,3.6426282,1,0,0,0,0,0,0,0,0,0,0,0,0,0,0,0,0,0,0,0,0
658,0.5730492,-1.1354828,-0.2306277,-1.877724,-0.99342567,-3.2577667,-2.485331,9.431509,3.7168486,1,0,0,0,0,0,0,0,0,0,0,0,0,0,0,0,0,0,0,0,0
659,0.77456784,-1.1005374,-0.06947009,-1.7861112,-0.46931556,-2.530191,-3.7123594,10.354473,4.158579,1,0,0,0,0,0,0,0,0,0,0,0,0,0,0,0,0,0,0,0,0
660,0.9298736,-1.0426438,0.056264497,-1.5283173,-0.09434248,-1.5373646,-3.3628058,9.663746,6.242731,0,0,0,0,0,0,0,0,0,0,0,0,0,0,0,0,0,0,0,0,0
661,1.0112182,-1.0023383,0.12099904,-0.64308256,-0.020839235,-0.8523996,-4.489278,10.604668,8.028806,0,0,0,0,0,0,0,0,0,0,0,0,0,0,0,0,0,0,0,0,0
662,1.0336919,-0.9960873,0.13694704,-0.06570924,-0.07729825,-0.05984283,-2.8983307,9.535657,6.23914,0,0,0,0,0,0,0,0,0,0,0,0,0,0,0,0,0,0,0,0,0
663,1.0354759,-0.9908731,0.13232802,-0.14027348,-0.10285075,0.011520036,-1.1745056,7.990199,6.087108,0,0,0,0,0,0,0,0,0,0,0,0,0,0,0,0,0,0,0,0,0
664,1.0418621,-0.9874401,0.13302965,-0.040138632,-0.19020243,-0.10992011,-1.1828853,8.235605,5.883601,0,0,0,0,0,0,0,0,0,0,0,0,0,0,0,0,0,0,0,0,0
665,1.0408714,-0.9870571,0.121371135,-0.04226916,-0.48208487,0.18302761,-1.0152912,8.437915,5.159355,0,0,0,0,0,0,0,0,0,0,0,0,0,0,0,0,0,0,0,0,0
666,1.0216789,-0.98642343,0.09420793,-0.058248125,-0.4128427,0.3183162,0.1794155,7.40362,4.710442,0,0,0,0,0,0,0,0,0,0,0,0,0,0,0,0,0,0,0,0,0
667,1.0050076,-0.98699695,0.07589041,0.08130151,-0.009107478,-0.0023284017,0.4990414,7.1534257,4.8995843,0,0,0,0,0,0,0,0,0,0,0,0,0,0,0,0,0,0,0,0,0
668,1.0164123,-0.99119705,0.088428825,0.16652267,0.098484226,-0.24307816,-0.5113117,8.091953,5.2491374,0,0,0,0,0,0,0,0,0,0,0,0,0,0,0,0,0,0,0,0,0
669,1.026307,-0.9960307,0.09915123,0.20487219,0.027111512,-0.07263585,-1.1469723,8.545654,5.25632,0,0,0,0,0,0,0,0,0,0,0,0,0,0,0,0,0,0,0,0,0
670,1.0245218,-1.0010443,0.097095996,0.08236678,-0.10072022,0.08715381,-0.847697,8.126669,5.0372505,0,0,0,0,0,0,0,0,0,0,0,0,0,0,0,0,0,0,0,0,0
671,1.0232596,-1.0018189,0.094233386,0.05360464,-0.079414934,-0.043873716,-0.6274305,7.9052052,5.171326,0,0,0,0,0,0,0,0,0,0,0,0,0,0,0,0,0,0,0,0,0
672,1.0297655,-1.0056093,0.0995041,0.14521737,-0.05810964,-0.14826962,-0.7543232,8.1697645,4.834941,0,0,0,0,0,0,0,0,0,0,0,0,0,0,0,0,0,0,0,0,0
673,1.0342964,-1.01071,0.104218334,0.09408469,-0.07408861,0.027499001,-1.1302128,8.788666,4.596718,0,0,0,0,0,0,0,0,0,0,0,0,0,0,0,0,0,0,0,0,0
674,1.0240066,-1.0109665,0.094831266,-0.09872817,-0.1103076,0.19474551,-0.5292682,7.9111905,4.660164,0,0,0,0,0,0,0,0,0,0,0,0,0,0,0,0,0,0,0,0,0
675,1.0122335,-1.009171,0.08688304,-0.06996603,0.036698893,0.044543233,-0.24675241,7.9411182,4.516512,0,0,0,0,0,0,0,0,0,0,0,0,0,0,0,0,0,0,0,0,0
676,1.0117192,-1.0083545,0.09318062,-0.04546495,0.27531812,-0.008719988,-0.7782652,8.198495,4.7619176,0,0,0,0,0,0,0,0,0,0,0,0,0,0,0,0,0,0,0,0,0
677,1.0079161,-1.0064993,0.09955911,-0.06677024,0.24975178,0.13935177,-0.79861593,8.229619,5.311387,0,0,0,0,0,0,0,0,0,0,0,0,0,0,0,0,0,0,0,0,0
678,1.0013402,-1.0035388,0.0962961,-0.09233659,0.030307306,0.12869912,-0.43589434,7.798663,5.656152,0,0,0,0,0,0,0,0,0,0,0,0,0,0,0,0,0,0,0,0,0
679,0.99830484,-0.9997694,0.091205515,-0.071035564,-0.08795089,-0.049190182,-0.20964229,7.7711296,5.636998,0,0,0,0,0,0,0,0,0,0,0,0,0,0,0,0,0,0,0,0,0
680,1.004562,-0.99825835,0.09298328,0.021642445,-0.08795089,-0.11417131,-0.44427404,7.9913964,5.514894,0,0,0,0,0,0,0,0,0,0,0,0,0,0,0,0,0,0,0,0,0
681,1.0071094,-0.99993455,0.094808616,0.107928865,-0.015512913,-0.0396028,-0.46342766,8.03928,5.2012534,0,0,0,0,0,0,0,0,0,0,0,0,0,0,0,0,0,0,0,0,0
682,1.0101587,-1.0033972,0.0975175,0.081297256,-0.06771087,-0.08008285,-0.57954645,8.011747,5.1030912,0,0,0,0,0,0,0,0,0,0,0,0,0,0,0,0,0,0,0,0,0
683,1.0162563,-1.0053092,0.101496264,0.07170987,-0.12736568,-0.1471945,-0.91234046,8.269124,4.846912,0,0,0,0,0,0,0,0,0,0,0,0,0,0,0,0,0,0,0,0,0
684,1.0226616,-1.0078367,0.106240235,0.036556147,-0.059188753,-0.018297514,-1.2008418,8.60072,4.656573,0,0,0,0,0,0,0,0,0,0,0,0,0,0,0,0,0,0,0,0,0
685,1.0179048,-1.0081079,0.102998845,-0.01777234,-0.019773971,0.11486054,-0.6358102,7.977031,4.9797897,0,0,0,0,0,0,0,0,0,0,0,0,0,0,0,0,0,0,0,0,0
686,1.0138078,-1.0085347,0.100147925,0.03549088,-0.011251856,0.0019425097,-0.70284784,8.097939,5.0312653,0,0,0,0,0,0,0,0,0,0,0,0,0,0,0,0,0,0,0,0,0
687,1.0102295,-1.0107158,0.09991583,0.021642445,0.045207158,0.12764372,-1.0057143,8.568399,4.8074074,0,0,0,0,0,0,0,0,0,0,0,0,0,0,0,0,0,0,0,0,0
688,0.9995897,-1.0091282,0.09229827,-0.085949264,0.037750307,0.25227964,-0.58792615,8.069208,5.494543,0,0,0,0,0,0,0,0,0,0,0,0,0,0,0,0,0,0,0,0,0
689,0.98807853,-1.0075892,0.08084126,0.004598214,-0.10179933,0.15214479,-0.6226421,8.026113,5.4741926,0,0,0,0,0,0,0,0,0,0,0,0,0,0,0,0,0,0,0,0,0
690,0.9823943,-1.0089358,0.07434532,0.063187756,-0.08262457,0.22245225,-1.0224738,8.664167,5.291036,1,0,0,0,0,0,0,0,0,0,0,0,0,0,0,0,0,0,0,0,0
691,0.96431637,-1.0120925,0.05769804,0.11218992,0.008988169,0.4781157,-1.3121722,8.732402,5.6621375,1,0,0,0,0,0,0,0,0,0,0,0,0,0,0,0,0,0,0,0,0
692,0.941961,-1.0170426,0.038049288,0.31565544,-0.05812349,0.8221961,-1.8436849,9.333346,6.0464067,1,0,0,0,0,0,0,0,0,0,0,0,0,0,0,0,0,0,0,0,0
693,0.87881327,-1.0306385,-0.020480908,0.4722493,-0.22643527,1.1726681,-0.9398738,8.650999,5.4298997,1,0,0,0,0,0,0,0,0,0,0,0,0,0,0,0,0,0,0,0,0
694,0.79943156,-1.0434783,-0.09681628,0.5265778,-0.24454476,1.6286013,-3.2897828,10.695647,5.7351604,1,0,0,0,0,0,0,0,0,0,0,0,0,0,0,0,0,0,0,0,0
695,0.68810505,-1.0507503,-0.19915755,0.8994203,-0.07197193,3.0177062,-2.47336,9.402779,6.1505547,1,0,0,0,0,0,0,0,0,0,0,0,0,0,0,0,0,0,0,0,0
696,0.46396405,-1.0517111,-0.40102103,1.5779914,0.13148665,3.520516,-0.870442,7.7412024,7.5391917,1,0,0,0,0,0,0,0,0,0,0,0,0,0,0,0,0,0,0,0,0
697,0.27709177,-1.0494875,-0.5702785,2.1958447,-0.11032837,4.0020156,-1.215207,8.129063,5.7363577,1,0,0,0,0,0,0,0,0,0,0,0,0,0,0,0,0,0,0,0,0
698,-0.0073022433,-1.0108266,-0.819798,2.450443,0.23588257,4.7189384,-1.4187142,7.4706573,5.5699606,1,0,0,0,0,0,0,0,0,0,0,0,0,0,0,0,0,0,0,0,0
699,-0.28861916,-0.9208092,-1.0470428,2.8712225,0.42549965,5.640392,0.2057517,5.555296,3.2104747,1,0,0,0,0,0,0,0,0,0,0,0,0,0,0,0,0,0,0,0,0
700,-0.52424693,-0.8177338,-1.1856041,3.650996,2.5017,6.093129,4.994155,3.3969233,0.21772271,1,0,0,0,0,0,0,0,0,0,0,0,0,0,0,0,0,0,0,0,0
701,-0.75739974,-0.70015454,-1.2229029,3.7628486,4.782431,5.47208,9.352799,1.4480431,3.9095817,1,0,0,0,0,0,0,0,0,0,0,0,0,0,0,0,0,0,0,0,0
702,-0.964634,-0.56499296,-1.2120247,1.3617427,1.9925036,3.9008155,17.02023,-3.0231285,3.5289037,1,0,0,0,0,0,0,0,0,0,0,0,0,0,0,0,0,0,0,0,0
703,-1.0414027,-0.4842885,-1.2057353,0.24854137,0.55120087,1.0821257,15.426889,-3.1428387,4.7655087,1,0,0,0,0,0,0,0,0,0,0,0,0,0,0,0,0,0,0,0,0
704,-1.0755745,-0.48012242,-1.2023349,0.3071309,-0.2988802,-0.51257515,7.389554,1.2170026,4.553622,1,0,0,0,0,0,0,0,0,0,0,0,0,0,0,0,0,0,0,0,0
705,-1.0745836,-0.4962582,-1.2265736,0.44028896,-0.6940933,-0.262238,6.1517515,3.2365117,2.5999534,1,0,0,0,0,0,0,0,0,0,0,0,0,0,0,0,0,0,0,0,0
706,-1.1068292,-0.5075937,-1.2518868,1.141233,-0.0048671933,-0.009770339,8.668057,4.0900445,1.6722002,1,0,0,0,0,0,0,0,0,0,0,0,0,0,0,0,0,0,0,0,0
707,-1.1314855,-0.5192384,-1.2726259,0.7268451,-0.35427392,-0.3197623,9.348011,5.5888147,0.60558337,1,0,0,0,0,0,0,0,0,0,0,0,0,0,0,0,0,0,0,0,0
708,-1.1387122,-0.54050297,-1.294862,0.20699605,-0.28929278,-0.45505086,7.6217914,6.6877537,0.12674305,1,0,0,0,0,0,0,0,0,0,0,0,0,0,0,0,0,0,0,0,0
709,-1.1290506,-0.55107605,-1.3025726,-0.19460863,-0.25200853,-0.19725688,7.318925,6.1753945,1.0125977,1,0,0,0,0,0,0,0,0,0,0,0,0,0,0,0,0,0,0,0,0
710,-1.118753,-0.5545824,-1.3055428,-0.023101058,-0.034694597,-0.10883993,7.9701476,5.337424,1.5596727,1,0,0,0,0,0,0,0,0,0,0,0,0,0,0,0,0,0,0,0,0
711,-1.1172479,-0.55674076,-1.3070525,-0.01884,0.03667812,-0.12801468,8.375965,4.865766,1.2711715,1,0,0,0,0,0,0,0,0,0,0,0,0,0,0,0,0,0,0,0,0
712,-1.1114722,-0.55870384,-1.3064417,-0.29261297,-0.036825124,-0.26117274,8.589049,4.647894,1.4160206,1,0,0,0,0,0,0,0,0,0,0,0,0,0,0,0,0,0,0,0,0
713,-1.0829133,-0.56828874,-1.2938321,-0.40340045,0.056918144,-0.34532863,7.5846815,5.256021,2.1055508,1,0,0,0,0,0,0,0,0,0,0,0,0,0,0,0,0,0,0,0,0
714,-1.066484,-0.5710519,-1.2861847,-0.45453316,-0.090088345,-0.3378718,8.901492,4.7903485,2.4850318,1,0,0,0,0,0,0,0,0,0,0,0,0,0,0,0,0,0,0,0,0
715,-1.0379165,-0.5817519,-1.2782006,-0.43429312,-0.18063582,-0.6638427,8.527997,4.934001,2.9183822,1,0,0,0,0,0,0,0,0,0,0,0,0,0,0,0,0,0,0,0,0
716,-1.0156308,-0.5971835,-1.2728233,-0.2702424,-0.20939796,-0.80339235,7.771429,5.2033486,2.7663505,1,0,0,0,0,0,0,0,0,0,0,0,0,0,0,0,0,0,0,0,0
717,-0.9938906,-0.61845994,-1.2720672,-0.43961945,-0.5183247,-0.9898136,9.333646,4.436007,2.511368,1,0,0,0,0,0,0,0,0,0,0,0,0,0,0,0,0,0,0,0,0
718,-0.95833784,-0.6512381,-1.2745765,-0.73789346,-0.9327125,-1.6311028,9.643695,4.118775,2.346168,1,0,0,0,0,0,0,0,0,0,0,0,0,0,0,0,0,0,0,0,0
719,-0.9205203,-0.68860596,-1.2731698,-0.8209841,-1.0552179,-2.2351077,8.50166,4.2899604,2.356942,1,0,0,0,0,0,0,0,0,0,0,0,0,0,0,0,0,0,0,0,0
720,-0.8741559,-0.7371016,-1.2694036,-1.0191233,-1.3385782,-2.6984978,8.129362,4.447978,1.9846436,1,0,0,0,0,0,0,0,0,0,0,0,0,0,0,0,0,0,0,0,0
721,-0.7789191,-0.816061,-1.251132,-1.6646736,-1.832861,-3.4590967,7.545177,4.5042415,1.7811364,1,0,0,0,0,0,0,0,0,0,0,0,0,0,0,0,0,0,0,0,0
722,-0.6308035,-0.909199,-1.1950917,-2.1078236,-1.8030336,-4.0737543,5.920711,4.3941083,0.82944125,1,0,0,0,0,0,0,0,0,0,0,0,0,0,0,0,0,0,0,0,0
723,-0.47986796,-0.98125076,-1.100746,-2.330464,-1.0988938,-4.426357,4.2076597,4.295946,0.81028765,1,0,0,0,0,0,0,0,0,0,0,0,0,0,0,0,0,0,0,0,0
724,-0.1721515,-1.0632523,-0.86523044,-2.2772007,-0.27224857,-4.6543236,2.0768204,4.6119804,3.1003416,1,0,0,0,0,0,0,0,0,0,0,0,0,0,0,0,0,0,0,0,0
725,0.12458753,-1.0999542,-0.61975867,-2.1717393,-0.060260944,-4.849267,0.4631284,5.0848355,4.28188,1,0,0,0,0,0,0,0,0,0,0,0,0,0,0,0,0,0,0,0,0
726,0.54946315,-1.0953875,-0.26233652,-2.3123543,-0.9572136,-4.4849463,-4.9226284,9.040056,7.1848497,1,0,0,0,0,0,0,0,0,0,0,0,0,0,0,0,0,0,0,0,0
727,0.8403458,-1.0377219,-0.052798755,-2.2196763,-1.3353825,-2.9285948,-4.823269,10.774656,6.4222965,1,0,0,0,0,0,0,0,0,0,0,0,0,0,0,0,0,0,0,0,0
728,0.9612907,-0.9840069,0.01873514,-2.021537,-1.0626748,-1.9560084,-3.5615246,9.605088,6.5300355,1,0,0,0,0,0,0,0,0,0,0,0,0,0,0,0,0,0,0,0,0
729,1.0620139,-0.93074197,0.08867432,-0.83376384,0.46705532,-1.4926258,-2.5236382,8.012944,7.996484,0,0,0,0,0,0,0,0,0,0,0,0,0,0,0,0,0,0,0,0,0
730,1.1309501,-0.9229697,0.16845584,0.44029242,1.049755,-1.0654548,-5.8408046,11.367221,8.9302225,0,0,0,0,0,0,0,0,0,0,0,0,0,0,0,0,0,0,0,0,0
731,1.1650144,-0.93360925,0.21554929,0.5010125,0.332832,0.17983927,-5.011214,10.833314,7.2746325,0,0,0,0,0,0,0,0,0,0,0,0,0,0,0,0,0,0,0,0,0
732,1.130914,-0.94096243,0.17490295,-0.14027669,-0.58436066,0.59742296,-1.1110592,6.894852,6.2882214,0,0,0,0,0,0,0,0,0,0,0,0,0,0,0,0,0,0,0,0,0
733,1.1167468,-0.93521285,0.14313787,-0.15305986,-0.8240452,0.074378096,-0.20964229,7.0768113,6.1361895,0,0,0,0,0,0,0,0,0,0,0,0,0,0,0,0,0,0,0,0,0
734,1.1145705,-0.93548656,0.1231771,0.15906262,-0.7611945,-0.024691498,-0.59271455,7.868095,5.54123,0,0,0,0,0,0,0,0,0,0,0,0,0,0,0,0,0,0,0,0,0
735,1.098252,-0.94986844,0.0971039,0.37105024,-0.38196042,0.26612568,0.0537199,7.4910083,3.982605,0,0,0,0,0,0,0,0,0,0,0,0,0,0,0,0,0,0,0,0,0
736,1.0734609,-0.9590525,0.076669596,0.14627945,-0.06557688,0.14681607,0.5600936,7.0432925,4.8576856,0,0,0,0,0,0,0,0,0,0,0,0,0,0,0,0,0,0,0,0,0
737,1.0695634,-0.9629163,0.07355714,0.12710468,-0.1039264,-0.052388374,-0.2503437,7.8369703,5.440674,0,0,0,0,0,0,0,0,0,0,0,0,0,0,0,0,0,0,0,0,0
738,1.0694752,-0.9668029,0.07328607,0.14095312,-0.113513775,-0.036409408,-0.58912325,7.9806223,5.3257523,0,0,0,0,0,0,0,0,0,0,0,0,0,0,0,0,0,0,0,0,0
739,1.0734664,-0.96869445,0.07374772,0.06744988,-0.24028024,0.06479071,-1.4630069,8.694095,6.105065,0,0,0,0,0,0,0,0,0,0,0,0,0,0,0,0,0,0,0,0,0
740,1.0603877,-0.97392905,0.05317382,0.24215324,-0.41711414,0.33962893,-0.58912325,7.918373,5.5077114,0,0,0,0,0,0,0,0,0,0,0,0,0,0,0,0,0,0,0,0,0
741,1.0387505,-0.9829571,0.026248712,0.20593426,-0.3915478,0.16918662,0.062099606,7.664588,4.6649523,0,0,0,0,0,0,0,0,0,0,0,0,0,0,0,0,0,0,0,0,0
742,1.0329155,-0.9865875,0.015960831,0.049340386,-0.36598146,0.085030735,-0.6441899,8.422353,4.8935986,0,0,0,0,0,0,0,0,0,0,0,0,0,0,0,0,0,0,0,0,0
743,1.0147394,-0.9891534,-0.0067750406,0.1537363,-0.2264318,0.4067406,-0.33054948,8.179341,5.4538417,0,0,0,0,0,0,0,0,0,0,0,0,0,0,0,0,0,0,0,0,0
744,0.9885921,-0.9955568,-0.028660659,0.31033018,-0.12203589,0.38010898,0.4499603,7.75437,4.94268,0,0,0,0,0,0,0,0,0,0,0,0,0,0,0,0,0,0,0,0,0
745,0.96140397,-1.0031983,-0.049354196,0.12177837,-0.1039264,0.16492558,0.8749311,7.6334634,4.4530654,0,0,0,0,0,0,0,0,0,0,0,0,0,0,0,0,0,0,0,0,0
746,0.96085626,-1.0010222,-0.050442535,-0.09234538,-0.028309936,-0.057702444,0.16026187,8.235605,5.404761,0,0,0,0,0,0,0,0,0,0,0,0,0,0,0,0,0,0,0,0,0
747,0.95703506,-1.0027002,-0.04991179,0.1452086,0.120827086,0.14363253,0.06569091,8.308628,5.171326,0,0,0,0,0,0,0,0,0,0,0,0,0,0,0,0,0,0,0,0,0
748,0.94501936,-1.0052692,-0.056191634,0.10366328,0.05904175,0.20328733,0.4966472,7.811831,5.276671,0,0,0,0,0,0,0,0,0,0,0,0,0,0,0,0,0,0,0,0,0
749,0.93727285,-1.0047082,-0.06465524,-0.060387444,-0.15933746,-0.021483455,0.6474819,7.7052894,5.1761146,0,0,0,0,0,0,0,0,0,0,0,0,0,0,0,0,0,0,0,0,0
750,0.9468479,-1.0052736,-0.05990794,0.19101496,0.014300643,0.16706835,-1.9825486,9.966613,6.295404,0,0,0,0,0,0,0,0,0,0,0,0,0,0,0,0,0,0,0,0,0
751,0.9243748,-1.0140738,-0.077679455,0.5681186,0.072890185,1.0064967,-1.3109751,9.551219,6.215198,0,0,0,0,0,0,0,0,0,0,0,0,0,0,0,0,0,0,0,0,0
752,0.8568836,-1.0275582,-0.13787843,0.4828974,-0.22751439,1.0917178,-0.43350014,8.59713,5.3796215,0,0,0,0,0,0,0,0,0,0,0,0,0,0,0,0,0,0,0,0,0
753,0.77809626,-1.0331745,-0.21333526,0.57451016,-0.18916486,1.9332768,-4.673631,11.910705,6.002114,0,0,0,0,0,0,0,0,0,0,0,0,0,0,0,0,0,0,0,0,0
754,0.6370671,-1.0333693,-0.33431476,1.3947637,0.39779583,3.9530182,-2.8803742,9.384822,6.4594064,0,0,0,0,0,0,0,0,0,0,0,0,0,0,0,0,0,0,0,0,0
755,0.4407901,-1.0210732,-0.50563836,1.7420399,0.24865882,4.149027,1.2735656,5.882105,6.277447,0,0,0,0,0,0,0,0,0,0,0,0,0,0,0,0,0,0,0,0,0
756,0.20300142,-0.9982059,-0.71481085,1.6514925,-0.6067485,3.605742,-0.21203649,8.402002,3.9359179,0,0,0,0,0,0,0,0,0,0,0,0,0,0,0,0,0,0,0,0,0
757,0.05196653,-0.9589413,-0.8553909,1.6056861,-0.25840706,4.640114,-0.14021043,7.773524,3.0763996,0,0,0,0,0,0,0,0,0,0,0,0,0,0,0,0,0,0,0,0,0
758,-0.2127275,-0.84610766,-1.0390935,1.4863765,0.27529043,4.7668805,8.463353,3.1168017,1.9247885,0,0,0,0,0,0,0,0,0,0,0,0,0,0,0,0,0,0,0,0,0
759,-0.36375043,-0.74146247,-1.1445895,0.7257777,-0.1369669,2.9719095,8.96853,3.417274,-0.6250363,0,0,0,0,0,0,0,0,0,0,0,0,0,0,0,0,0,0,0,0,0
760,-0.45310187,-0.68261683,-1.1707739,1.4043511,1.8763828,2.5969365,7.7786117,2.9109004,1.3334208,0,0,0,0,0,0,0,0,0,0,0,0,0,0,0,0,0,0,0,0,0
761,-0.5725074,-0.6168472,-1.1623793,1.0219212,1.586631,2.1314158,10.93776,1.2325649,2.5245361,1,0,0,0,0,0,0,0,0,0,0,0,0,0,0,0,0,0,0,0,0
762,-0.6208157,-0.5724522,-1.162562,-0.10193276,0.5224318,0.7401806,9.508423,2.7445033,1.4662989,1,0,0,0,0,0,0,0,0,0,0,0,0,0,0,0,0,0,0,0,0
763,-0.61217594,-0.55828667,-1.1368665,0.11538571,1.3235245,0.6570801,6.11943,4.7280993,4.4303207,1,0,0,0,0,0,0,0,0,0,0,0,0,0,0,0,0,0,0,0,0
764,-0.6338866,-0.5301531,-1.1155326,-0.09021032,0.48516136,0.74336654,10.263793,3.5166333,4.602703,1,0,0,0,0,0,0,0,0,0,0,0,0,0,0,0,0,0,0,0,0
765,-0.630171,-0.5220038,-1.1095719,-0.0816882,0.118710406,-0.15145557,8.903887,4.6443024,4.1633673,1,0,0,0,0,0,0,0,0,0,0,0,0,0,0,0,0,0,0,0,0
766,-0.6129984,-0.5264952,-1.1050639,-0.2468042,-0.12630041,-0.37090003,7.497293,4.7328877,4.4039845,1,0,0,0,0,0,0,0,0,0,0,0,0,0,0,0,0,0,0,0,0
767,-0.5904717,-0.5356308,-1.0988169,0.13775627,0.005792375,-0.056647032,5.2611084,6.049699,4.5823526,1,0,0,0,0,0,0,0,0,0,0,0,0,0,0,0,0,0,0,0,0
768,-0.60451144,-0.53301877,-1.1078058,0.26984906,-0.10819092,0.14255741,9.132533,4.7532387,3.628263,1,0,0,0,0,0,0,0,0,0,0,0,0,0,0,0,0,0,0,0,0
769,-0.61335623,-0.5358744,-1.1160681,0.31778595,-0.08901616,-0.23348093,8.502858,4.71134,3.141043,1,0,0,0,0,0,0,0,0,0,0,0,0,0,0,0,0,0,0,0,0
770,-0.6105625,-0.55133075,-1.1193223,0.2325648,-0.044275053,-0.3037884,6.2918124,5.3649573,3.343353,1,0,0,0,0,0,0,0,0,0,0,0,0,0,0,0,0,0,0,0,0
771,-0.61285853,-0.556787,-1.126448,0.051469848,-0.109256186,-0.031080687,7.6541133,5.0106153,2.866907,1,0,0,0,0,0,0,0,0,0,0,0,0,0,0,0,0,0,0,0,0
772,-0.61471164,-0.558873,-1.1304046,0.052535113,-0.063449815,-0.2462641,8.356812,4.8118963,2.917185,1,0,0,0,0,0,0,0,0,0,0,0,0,0,0,0,0,0,0,0,0
773,-0.60995924,-0.5711289,-1.1318777,0.038686674,-0.06238455,-0.45079488,7.593061,5.1195517,2.7699418,1,0,0,0,0,0,0,0,0,0,0,0,0,0,0,0,0,0,0,0,0
774,-0.6036698,-0.5793433,-1.1329938,-0.27130526,-0.23602265,-0.5338855,8.135347,4.699369,2.6717794,1,0,0,0,0,0,0,0,0,0,0,0,0,0,0,0,0,0,0,0,0
775,-0.57567054,-0.59238386,-1.1278733,-0.44174758,-0.23708792,-0.717111,7.411102,4.969914,3.318214,1,0,0,0,0,0,0,0,0,0,0,0,0,0,0,0,0,0,0,0,0
776,-0.5506227,-0.605297,-1.1208426,-0.3341559,-0.17849837,-0.78102684,7.0172553,5.4535427,3.6306572,1,0,0,0,0,0,0,0,0,0,0,0,0,0,0,0,0,0,0,0,0
777,-0.5223727,-0.62359947,-1.1127987,-0.2553263,-0.2168479,-0.75333,7.4087076,5.591209,3.7192428,1,0,0,0,0,0,0,0,0,0,0,0,0,0,0,0,0,0,0,0,0
778,-0.5000295,-0.64313376,-1.1081697,-0.31924218,-0.28076375,-0.9940797,8.360403,5.03336,3.0189388,1,0,0,0,0,0,0,0,0,0,0,0,0,0,0,0,0,0,0,0,0
779,-0.45942742,-0.66872525,-1.0918547,-0.32989934,-0.18064275,-1.1783606,4.782268,6.571635,4.086753,1,0,0,0,0,0,0,0,0,0,0,0,0,0,0,0,0,0,0,0,0
780,-0.4263151,-0.6929144,-1.0812746,-0.100867495,-0.21047015,-0.60631365,5.6154504,6.7966895,3.708469,1,0,0,0,0,0,0,0,0,0,0,0,0,0,0,0,0,0,0,0,0
781,-0.43190843,-0.70233285,-1.0820171,0.15160018,0.25078934,-0.80232227,9.544335,5.4128413,2.2803276,1,0,0,0,0,0,0,0,0,0,0,0,0,0,0,0,0,0,0,0,0
782,-0.42665955,-0.73692244,-1.0576435,-0.022037923,0.41590533,-1.8707825,9.719112,4.2863693,2.0456958,1,0,0,0,0,0,0,0,0,0,0,0,0,0,0,0,0,0,0,0,0
783,-0.36617988,-0.797298,-1.0000514,-0.6324344,0.31790102,-2.795432,6.5503864,4.412065,1.8278234,1,0,0,0,0,0,0,0,0,0,0,0,0,0,0,0,0,0,0,0,0
784,-0.28762737,-0.84149337,-0.93173057,-1.0968897,0.25611567,-2.9307206,4.9295115,4.5664907,1.8385973,1,0,0,0,0,0,0,0,0,0,0,0,0,0,0,0,0,0,0,0,0
785,-0.15902269,-0.88889664,-0.80321735,-1.2811805,1.0529335,-3.4367213,6.16492,4.0900445,0.9120412,1,0,0,0,0,0,0,0,0,0,0,0,0,0,0,0,0,0,0,0,0
786,0.020676037,-0.92603517,-0.6321889,-1.2747889,1.7347027,-4.2910633,2.2025158,4.330662,4.850503,1,0,0,0,0,0,0,0,0,0,0,0,0,0,0,0,0,0,0,0,0
787,0.3070511,-0.95056236,-0.37328064,-1.6572188,0.117631294,-4.0417914,-5.2901382,9.245958,7.9282494,1,0,0,0,0,0,0,0,0,0,0,0,0,0,0,0,0,0,0,0,0
788,0.4657664,-0.9287396,-0.26984856,-2.0130172,-1.1787956,-1.9645258,-1.8939632,9.699659,6.370821,0,0,0,0,0,0,0,0,0,0,0,0,0,0,0,0,0,0,0,0,0
789,0.5860786,-0.8799741,-0.20124193,-1.545366,0.003647998,-1.6747738,0.7408558,6.8792896,7.2638583,0,0,0,0,0,0,0,0,0,0,0,0,0,0,0,0,0,0,0,0,0
790,0.70656705,-0.85751873,-0.09272827,-0.4598616,0.833489,-1.9144584,-2.96058,8.999355,9.751434,0,0,0,0,0,0,0,0,0,0,0,0,0,0,0,0,0,0,0,0,0
791,0.771274,-0.8614026,-0.03080181,0.3454783,0.25931147,-0.80232227,-3.7937622,10.113856,8.832061,0,0,0,0,0,0,0,0,0,0,0,0,0,0,0,0,0,0,0,0,0
792,0.78844523,-0.8734684,-0.02121219,0.26664874,-0.2360365,0.057346113,-1.1852795,8.004564,6.704812,0,0,0,0,0,0,0,0,0,0,0,0,0,0,0,0,0,0,0,0,0
793,0.7865502,-0.8759794,-0.030087892,0.13136016,-0.26799443,-0.13866255,0.5900211,6.8146462,6.285827,0,0,0,0,0,0,0,0,0,0,0,0,0,0,0,0,0,0,0,0,0
794,0.80542934,-0.88613576,-0.019701717,0.396611,-0.054941546,-0.4752861,-0.16056114,7.5412865,5.7818475,0,0,0,0,0,0,0,0,0,0,0,0,0,0,0,0,0,0,0,0,0
795,0.8196034,-0.90142524,-0.00662137,0.50207216,-0.025114141,-0.012961338,-1.0859201,8.627057,5.098303,0,0,0,0,0,0,0,0,0,0,0,0,0,0,0,0,0,0,0,0,0
796,0.8008156,-0.91392314,-0.021232804,0.19740789,-0.09115707,0.33750826,0.51939213,7.061249,4.9797897,0,0,0,0,0,0,0,0,0,0,0,0,0,0,0,0,0,0,0,0,0
797,0.7914609,-0.9167461,-0.02974599,0.035487685,-0.10180972,-0.14612179,0.83422965,6.8517566,5.2036476,0,0,0,0,0,0,0,0,0,0,0,0,0,0,0,0,0,0,0,0,0
798,0.8093713,-0.9181971,-0.015703002,0.030161364,0.011108311,-0.40817684,-0.68489134,8.168568,5.6405897,0,0,0,0,0,0,0,0,0,0,0,0,0,0,0,0,0,0,0,0,0
799,0.81912845,-0.9218564,-0.004942379,0.06531509,0.060110476,0.08397533,-0.73277533,8.390031,5.4263086,0,0,0,0,0,0,0,0,0,0,0,0,0,0,0,0,0,0,0,0,0
800,0.80827546,-0.92124736,-0.011382224,-0.06464717,0.04519677,0.20221968,0.28595746,7.157017,5.690868,0,0,0,0,0,0,0,0,0,0,0,0,0,0,0,0,0,0,0,0,0
801,0.80636495,-0.9181332,-0.012919934,-0.05505979,-0.014458035,-0.13759968,0.35898063,7.2803183,5.947047,0,0,0,0,0,0,0,0,0,0,0,0,0,0,0,0,0,0,0,0,0
802,0.81750226,-0.918494,-0.0041637677,0.0290961,0.010043046,-0.18447131,-0.57116675,8.153005,5.8417025,0,0,0,0,0,0,0,0,0,0,0,0,0,0,0,0,0,0,0,0,0
803,0.8198944,-0.9197052,-0.0013327886,3.339604E-4,0.0324136,0.13723855,-0.44786537,7.8932343,5.732766,0,0,0,0,0,0,0,0,0,0,0,0,0,0,0,0,0,0,0,0,0
804,0.81308925,-0.91826314,-0.007900474,0.0013992249,-0.02298015,0.105280615,0.10040683,7.3880577,6.204424,0,0,0,0,0,0,0,0,0,0,0,0,0,0,0,0,0,0,0,0,0
805,0.8144914,-0.91995263,-0.00866233,0.08235932,-0.09222234,-0.07155328,-0.0839467,7.668179,5.809381,0,0,0,0,0,0,0,0,0,0,0,0,0,0,0,0,0,0,0,0,0
806,0.8169271,-0.92269814,-0.008759908,0.026965572,-0.08796128,-0.011898471,-0.18809447,7.8238025,5.50412,0,0,0,0,0,0,0,0,0,0,0,0,0,0,0,0,0,0,0,0,0
807,0.813618,-0.92184544,-0.012470623,-0.07103875,-0.062394936,0.037103694,0.21413141,7.3892546,5.5819316,0,0,0,0,0,0,0,0,0,0,0,0,0,0,0,0,0,0,0,0,0
808,0.8173007,-0.9195585,-0.011643581,-0.012449212,-0.011262242,-0.09925015,-0.19407998,7.670573,6.188862,0,0,0,0,0,0,0,0,0,0,0,0,0,0,0,0,0,0,0,0,0
809,0.82448804,-0.9229198,-0.007498823,0.14840572,-0.083700225,0.12871644,-1.7419313,9.053225,6.5563717,0,0,0,0,0,0,0,0,0,0,0,0,0,0,0,0,0,0,0,0,0
810,0.80765295,-0.92640144,-0.026694462,0.16225415,-0.27012148,0.6059549,-0.5089175,7.963863,6.188862,0,0,0,0,0,0,0,0,0,0,0,0,0,0,0,0,0,0,0,0,0
811,0.7818879,-0.9305588,-0.05702476,0.17929839,-0.27225202,0.45468736,-0.60947394,8.115895,6.4199023,0,0,0,0,0,0,0,0,0,0,0,0,0,0,0,0,0,0,0,0,0
812,0.76614934,-0.9358053,-0.07987322,0.45094082,-0.43310696,0.83818257,-2.3344963,9.442283,7.7498813,0,0,0,0,0,0,0,0,0,0,0,0,0,0,0,0,0,0,0,0,0
813,0.6888133,-0.9511388,-0.16475199,0.8621339,-0.7665313,2.1441941,-3.219154,10.178499,7.2542815,0,0,0,0,0,0,0,0,0,0,0,0,0,0,0,0,0,0,0,0,0
814,0.5742432,-0.96103686,-0.27835485,1.3308502,-0.5257815,3.3149197,-2.1405659,8.598327,6.2942066,0,0,0,0,0,0,0,0,0,0,0,0,0,0,0,0,0,0,0,0,0
815,0.3524236,-0.96563125,-0.47205058,2.0200763,0.119768746,4.0041456,0.29433718,7.188142,5.976975,0,0,0,0,0,0,0,0,0,0,0,0,0,0,0,0,0,0,0,0,0
816,0.09819358,-0.95734024,-0.6774848,2.5654917,0.47769758,3.5886927,3.805434,5.205743,5.061193,0,0,0,0,0,0,0,0,0,0,0,0,0,0,0,0,0,0,0,0,0
817,-0.04809545,-0.95054805,-0.79184747,2.372679,0.24227415,3.3916187,-1.3875896,8.4642515,4.6158714,1,0,0,0,0,0,0,0,0,0,0,0,0,0,0,0,0,0,0,0,0
818,-0.3080247,-0.88009685,-0.98385185,1.9444426,-0.0016713999,4.5911064,5.744737,4.191798,2.5927708,1,0,0,0,0,0,0,0,0,0,0,0,0,0,0,0,0,0,0,0,0
819,-0.46770772,-0.8023316,-1.0895483,1.4778568,0.046265498,3.4097283,9.895086,3.2903814,1.5728409,1,0,0,0,0,0,0,0,0,0,0,0,0,0,0,0,0,0,0,0,0
820,-0.60860395,-0.7371939,-1.162606,1.9668132,1.3597366,2.5479293,7.2638583,4.534169,1.1610382,1,0,0,0,0,0,0,0,0,0,0,0,0,0,0,0,0,0,0,0,0
821,-0.70162916,-0.6999243,-1.1783397,1.9614868,1.9115435,2.4776218,5.7818475,4.981885,2.2144868,1,0,0,0,0,0,0,0,0,0,0,0,0,0,0,0,0,0,0,0,0
822,-0.8189633,-0.63535655,-1.1954088,1.2605429,1.4183261,2.5479293,9.164854,3.6985927,0.96591073,1,0,0,0,0,0,0,0,0,0,0,0,0,0,0,0,0,0,0,0,0
823,-0.8972801,-0.57216036,-1.192112,0.45946398,1.0486794,1.6989136,11.737424,2.335095,2.406023,1,0,0,0,0,0,0,0,0,0,0,0,0,0,0,0,0,0,0,0,0
824,-0.9218915,-0.5430226,-1.1884997,-0.14773673,0.36477956,0.58251643,10.670807,2.5769093,2.5281274,1,0,0,0,0,0,0,0,0,0,0,0,0,0,0,0,0,0,0,0,0
825,-0.9160961,-0.533155,-1.1704835,-0.06251558,0.5693103,0.05627579,7.413496,3.8625956,3.5181298,1,0,0,0,0,0,0,0,0,0,0,0,0,0,0,0,0,0,0,0,0
826,-0.9161964,-0.5279587,-1.1597223,-0.13495356,0.25079626,0.04881894,8.441806,3.6734536,3.5169327,1,0,0,0,0,0,0,0,0,0,0,0,0,0,0,0,0,0,0,0,0
827,-0.9062229,-0.52839977,-1.1498549,-0.14134514,0.16557512,-0.28780463,8.176049,4.391714,3.6234746,1,0,0,0,0,0,0,0,0,0,0,0,0,0,0,0,0,0,0,0,0
828,-0.8874616,-0.5371653,-1.1399004,-0.16478096,0.052657086,-0.3421331,7.417087,5.2883425,3.8461354,1,0,0,0,0,0,0,0,0,0,0,0,0,0,0,0,0,0,0,0,0
829,-0.86904585,-0.54417884,-1.1355506,-0.1488044,-0.10181318,-0.28566903,6.999299,5.765986,3.8449383,1,0,0,0,0,0,0,0,0,0,0,0,0,0,0,0,0,0,0,0,0
830,-0.85462636,-0.55045617,-1.1356034,-0.06571376,-0.11885741,-0.1791426,7.3009686,5.6893716,3.5827732,1,0,0,0,0,0,0,0,0,0,0,0,0,0,0,0,0,0,0,0,0
831,-0.84651953,-0.5555489,-1.1358683,0.1452086,0.019626964,-0.103508815,7.142951,5.73127,3.5492544,1,0,0,0,0,0,0,0,0,0,0,0,0,0,0,0,0,0,0,0,0
832,-0.8504569,-0.56043684,-1.1389847,0.19953708,-0.03896258,-0.072616145,7.90311,5.1434937,3.2607532,1,0,0,0,0,0,0,0,0,0,0,0,0,0,0,0,0,0,0,0,0
833,-0.8485157,-0.5643122,-1.1448889,0.016311595,-0.18916486,-0.19618683,7.6589017,5.1003976,2.9255648,1,0,0,0,0,0,0,0,0,0,0,0,0,0,0,0,0,0,0,0,0
834,-0.8433784,-0.5709915,-1.1484725,0.0035284222,-0.09755212,-0.2356016,7.5224323,5.044134,2.9231706,1,0,0,0,0,0,0,0,0,0,0,0,0,0,0,0,0,0,0,0,0
835,-0.83697623,-0.57868385,-1.1502366,-0.029494775,-0.11885741,-0.3197575,7.715165,5.030966,2.997391,1,0,0,0,0,0,0,0,0,0,0,0,0,0,0,0,0,0,0,0,0
836,-0.82765836,-0.5873901,-1.1520605,-0.08595379,-0.20514382,-0.36875966,7.2052,5.605574,2.8357823,1,0,0,0,0,0,0,0,0,0,0,0,0,0,0,0,0,0,0,0,0
837,-0.81530195,-0.5964821,-1.153129,-0.15626124,-0.15294588,-0.37195545,7.7857943,5.515792,3.0033765,1,0,0,0,0,0,0,0,0,0,0,0,0,0,0,0,0,0,0,0,0
838,-0.8069173,-0.60323507,-1.1524781,-0.20739393,-0.2030133,-0.59885675,8.470536,4.8909054,3.0895677,1,0,0,0,0,0,0,0,0,0,0,0,0,0,0,0,0,0,0,0,0
839,-0.7828135,-0.6222849,-1.149063,-0.34800884,-0.37132508,-0.94187194,7.691223,4.961534,3.1578023,1,0,0,0,0,0,0,0,0,0,0,0,0,0,0,0,0,0,0,0,0
