nr,fusedX,fusedY,fusedZ,gyroX,gyroY,gyroZ,accX,accY,accZ,q,w,e,r,t,z,u,i,o,p,a,s,d,f,g,h,j,k,l,y
0,2.8661854,-0.7277794,-0.27970508,-0.006882141,-0.015240738,-0.013624466,2.0392613,6.513725,7.4476132,0,0,0,0,0,0,0,0,0,0,0,0,0,0,0,0,0,0,0,0,0
1,2.8643093,-0.7294015,-0.27914912,0.04425055,0.030565633,-8.412926E-4,1.8656816,6.458658,6.8335004,0,0,0,0,0,0,0,0,0,0,0,0,0,0,0,0,0,0,0,0,0
2,2.8627698,-0.7292854,-0.27961224,-0.019665314,-0.014175474,0.022594525,1.9877859,6.5699887,6.875399,0,0,0,0,0,0,0,0,0,0,0,0,0,0,0,0,0,0,0,0,0
3,2.8628762,-0.7288201,-0.2802701,-0.042035867,-0.0035228294,0.003419765,2.1146786,6.6262527,6.9987006,0,0,0,0,0,0,0,0,0,0,0,0,0,0,0,0,0,0,0,0,0
4,2.8629456,-0.7275443,-0.27900752,-0.042035867,0.03269616,-0.026407639,1.9961656,6.5759745,7.053767,0,0,0,0,0,0,0,0,0,0,0,0,0,0,0,0,0,0,0,0,0
5,2.8624268,-0.72673655,-0.27654454,-0.0409706,0.03482669,-0.017885523,1.8596961,6.501754,6.959196,0,0,0,0,0,0,0,0,0,0,0,0,0,0,0,0,0,0,0,0,0
6,2.8615906,-0.7248447,-0.2746864,-0.059080098,0.02523931,0.0023545008,1.8776526,6.464644,7.113622,0,0,0,0,0,0,0,0,0,0,0,0,0,0,0,0,0,0,0,0,0
7,2.861387,-0.7239641,-0.2744925,-0.027122164,0.0039340216,0.0012892362,2.0284874,6.502951,7.161506,0,0,0,0,0,0,0,0,0,0,0,0,0,0,0,0,0,0,0,0,0
8,2.8605525,-0.7235022,-0.27383104,-0.010077934,0.017782459,-0.009363408,1.9458874,6.518513,7.027431,0,0,0,0,0,0,0,0,0,0,0,0,0,0,0,0,0,0,0,0,0
9,2.8600366,-0.7231528,-0.27317977,-0.031383224,0.0018034927,-0.006167615,1.9422961,6.4837976,6.9747586,0,0,0,0,0,0,0,0,0,0,0,0,0,0,0,0,0,0,0,0,0
10,2.8610072,-0.72176784,-0.27211165,-0.05482703,0.03268471,-0.0040264335,1.965041,6.489783,7.06095,0,0,0,0,0,0,0,0,0,0,0,0,0,0,0,0,0,0,0,0,0
11,2.862745,-0.71968037,-0.2699914,-0.06228388,0.038011033,-0.013613813,2.0069396,6.4957685,7.205799,0,0,0,0,0,0,0,0,0,0,0,0,0,0,0,0,0,0,0,0,0
12,2.8629396,-0.7190449,-0.2689216,-0.022869097,0.011379421,-0.026396986,1.9015948,6.4275336,7.1758714,0,0,0,0,0,0,0,0,0,0,0,0,0,0,0,0,0,0,0,0,0
13,2.8631604,-0.7186557,-0.26763055,-0.02393436,0.024162594,-0.011483285,1.8680758,6.446687,7.0717235,0,0,0,0,0,0,0,0,0,0,0,0,0,0,0,0,0,0,0,0,0
14,2.863112,-0.71764433,-0.26583987,-0.039913327,0.039076295,-8.306399E-4,1.8872294,6.4395046,7.1172132,0,0,0,0,0,0,0,0,0,0,0,0,0,0,0,0,0,0,0,0,0
15,2.8631532,-0.716499,-0.2647387,-0.029260684,0.0028573056,-0.009352756,1.9075803,6.477812,7.206996,0,0,0,0,0,0,0,0,0,0,0,0,0,0,0,0,0,0,0,0,0
16,2.8634348,-0.7160129,-0.2642554,-0.017542774,0.008183627,-0.01041802,1.9219455,6.432322,7.1423526,0,0,0,0,0,0,0,0,0,0,0,0,0,0,0,0,0,0,0,0,0
17,2.8629148,-0.71568054,-0.26351038,-0.021803832,0.024162594,-0.0072222264,1.8752584,6.440702,7.1650977,0,0,0,0,0,0,0,0,0,0,0,0,0,0,0,0,0,0,0,0,0
18,2.862385,-0.71495193,-0.26257727,-0.02606489,0.008183627,0.0055609467,1.8644845,6.4215484,7.1184106,0,0,0,0,0,0,0,0,0,0,0,0,0,0,0,0,0,0,0,0,0
19,2.8625627,-0.7140494,-0.26261228,-0.020738568,-0.0067300745,0.0023651533,1.9698294,6.4395046,7.2022076,0,0,0,0,0,0,0,0,0,0,0,0,0,0,0,0,0,0,0,0,0
20,2.8645144,-0.7138938,-0.26222146,-0.0026290726,0.014575214,-0.01787487,1.9913772,6.4490814,7.1746745,0,0,0,0,0,0,0,0,0,0,0,0,0,0,0,0,0,0,0,0,0
21,2.8662782,-0.7139279,-0.25996915,-0.013281717,0.05185947,-0.030658044,1.9027919,6.443096,7.125593,0,0,0,0,0,0,0,0,0,0,0,0,0,0,0,0,0,0,0,0,0
22,2.8667905,-0.7137781,-0.25831717,-0.032456476,0.04972894,-0.03704963,1.8142064,6.4371104,7.114819,0,0,0,0,0,0,0,0,0,0,0,0,0,0,0,0,0,0,0,0,0
23,2.8679094,-0.7129797,-0.2551668,-0.042043857,0.052924734,-0.03704963,1.775899,6.444293,7.1722803,0,0,0,0,0,0,0,0,0,0,0,0,0,0,0,0,0,0,0,0,0
24,2.8689437,-0.71197283,-0.25179797,-0.029260684,0.058251057,-0.03172331,1.7806876,6.422745,7.2620625,0,0,0,0,0,0,0,0,0,0,0,0,0,0,0,0,0,0,0,0,0
25,2.869124,-0.7118267,-0.24934039,-0.003694337,0.034815237,-0.024266457,1.7423803,6.390424,7.2249527,0,0,0,0,0,0,0,0,0,0,0,0,0,0,0,0,0,0,0,0,0
26,2.8688204,-0.7118784,-0.24856475,0.0037625139,0.028423652,-0.0050916974,1.775899,6.348525,7.1639004,0,0,0,0,0,0,0,0,0,0,0,0,0,0,0,0,0,0,0,0,0
27,2.8682382,-0.71167094,-0.24743693,-0.015412246,0.022032065,0.006626211,1.7902644,6.384438,7.2081933,0,0,0,0,0,0,0,0,0,0,0,0,0,0,0,0,0,0,0,0,0
28,2.8686395,-0.711347,-0.24728476,-0.00689013,0.0028573056,0.0098220045,1.8261774,6.444293,7.192631,0,0,0,0,0,0,0,0,0,0,0,0,0,0,0,0,0,0,0,0,0
29,2.8686342,-0.71142614,-0.24766523,0.0026972496,-0.009925867,0.004495682,1.7806876,6.4371104,7.1746745,0,0,0,0,0,0,0,0,0,0,0,0,0,0,0,0,0,0,0,0,0
30,2.868611,-0.71110755,-0.24748036,-0.015412246,0.012444685,0.0076914756,1.762731,6.438308,7.191434,0,0,0,0,0,0,0,0,0,0,0,0,0,0,0,0,0,0,0,0,0
31,2.8693597,-0.71089476,-0.24745871,-0.003694337,-0.021643776,-0.006156962,1.8297687,6.426337,7.2285438,0,0,0,0,0,0,0,0,0,0,0,0,0,0,0,0,0,0,0,0,0
32,2.8701916,-0.7113481,-0.24823521,0.011219365,-0.040818535,-0.023201194,1.7818847,6.4371104,7.1399584,0,0,0,0,0,0,0,0,0,0,0,0,0,0,0,0,0,0,0,0,0
33,2.8713148,-0.7116466,-0.2483005,-0.0047596013,-0.0045995456,-0.0200054,1.774702,6.4239426,7.2261496,0,0,0,0,0,0,0,0,0,0,0,0,0,0,0,0,0,0,0,0,0
34,2.8722541,-0.7117266,-0.24720682,-0.005824866,0.0209668,-0.015744342,1.7675194,6.4335194,7.137564,0,0,0,0,0,0,0,0,0,0,0,0,0,0,0,0,0,0,0,0,0
35,2.8729537,-0.7112569,-0.24576335,-0.017542774,0.022032065,-0.008287491,1.7711107,6.370073,7.1746745,0,0,0,0,0,0,0,0,0,0,0,0,0,0,0,0,0,0,0,0,0
36,2.8736858,-0.7108834,-0.24580662,-0.014346981,-0.014186925,-8.306399E-4,1.8177977,6.3628902,7.215376,0,0,0,0,0,0,0,0,0,0,0,0,0,0,0,0,0,0,0,0,0
37,2.8745253,-0.7102736,-0.24636836,-0.0122164525,-0.0067300745,0.0098220045,1.846528,6.360496,7.2225585,0,0,0,0,0,0,0,0,0,0,0,0,0,0,0,0,0,0,0,0,0
38,2.8766441,-0.7097348,-0.24654692,-0.019673303,0.017771007,-0.013613813,1.9818004,6.414366,7.2560773,0,0,0,0,0,0,0,0,0,0,0,0,0,0,0,0,0,0,0,0,0
39,2.879975,-0.70922893,-0.24316679,-0.04523965,0.10086163,-0.0530286,1.8884265,6.432322,7.051373,0,0,0,0,0,0,0,0,0,0,0,0,0,0,0,0,0,0,0,0,0
40,2.8824546,-0.7074319,-0.23649324,-0.08998076,0.12429745,-0.06900756,1.6861166,6.4215484,7.0932713,0,0,0,0,0,0,0,0,0,0,0,0,0,0,0,0,0,0,0,0,0
41,2.8823295,-0.706066,-0.23275724,-0.10915551,0.11364481,-0.07007283,1.5688007,6.4000006,7.2321353,0,0,0,0,0,0,0,0,0,0,0,0,0,0,0,0,0,0,0,0,0
42,2.8826232,-0.70307994,-0.2258356,-0.10809025,0.10299216,-0.0530286,1.4227544,6.3640876,7.2955813,0,0,0,0,0,0,0,0,0,0,0,0,0,0,0,0,0,0,0,0,0
43,2.8814523,-0.6998803,-0.22039354,-0.08891549,0.08488267,-0.014679077,1.3581109,6.330569,7.50268,0,0,0,0,0,0,0,0,0,0,0,0,0,0,0,0,0,0,0,0,0
44,2.8778787,-0.6981153,-0.21776666,-0.019686086,0.05716688,0.030079072,1.3976152,6.2970495,7.5601406,0,0,0,0,0,0,0,0,0,0,0,0,0,0,0,0,0,0,0,0,0
45,2.875177,-0.69814265,-0.21750452,0.038903456,0.0070994548,0.0652328,1.4694413,6.252757,7.3781815,0,0,0,0,0,0,0,0,0,0,0,0,0,0,0,0,0,0,0,0,0
46,2.8708522,-0.69916594,-0.2199281,0.048490837,-0.031250063,0.0801465,1.5652094,6.301838,7.2680483,0,0,0,0,0,0,0,0,0,0,0,0,0,0,0,0,0,0,0,0,0
47,2.8684087,-0.7002176,-0.2244418,0.049556103,-0.072795376,0.07055912,1.7723078,6.3640876,7.302764,0,0,0,0,0,0,0,0,0,0,0,0,0,0,0,0,0,0,0,0,0
48,2.8683753,-0.7018386,-0.22892997,0.04422978,-0.054685883,0.034340132,1.845331,6.368876,7.144747,0,0,0,0,0,0,0,0,0,0,0,0,0,0,0,0,0,0,0,0,0
49,2.8691375,-0.70236796,-0.23102635,0.0026844663,-0.037641652,0.015165371,1.7770962,6.34254,7.0621467,0,0,0,0,0,0,0,0,0,0,0,0,0,0,0,0,0,0,0,0,0
50,2.870307,-0.70205724,-0.2321214,-0.03673032,-0.06533853,0.0077085197,1.7447745,6.335357,7.197419,0,0,0,0,0,0,0,0,0,0,0,0,0,0,0,0,0,0,0,0,0
51,2.8717756,-0.7006092,-0.23472762,-0.029273467,-0.1079491,-0.0061399178,1.7423803,6.264728,7.3877583,0,0,0,0,0,0,0,0,0,0,0,0,0,0,0,0,0,0,0,0,0
52,2.8731096,-0.6997449,-0.2380383,-0.016490294,-0.088774346,0.010904313,1.7567455,6.2371945,7.397335,0,0,0,0,0,0,0,0,0,0,0,0,0,0,0,0,0,0,0,0,0
53,2.874185,-0.6994101,-0.24044332,0.004814995,-0.03977218,0.018361164,1.83336,6.348525,7.362619,0,0,0,0,0,0,0,0,0,0,0,0,0,0,0,0,0,0,0,0,0
54,2.8743682,-0.7002058,-0.24234262,0.012271847,-0.062142733,0.0023821977,1.6885108,6.324583,7.025037,0,0,0,0,0,0,0,0,0,0,0,0,0,0,0,0,0,0,0,0,0
55,2.8750646,-0.6998085,-0.24344741,-0.046317697,-0.08983961,0.005577991,1.714847,6.332963,7.2129817,0,0,0,0,0,0,0,0,0,0,0,0,0,0,0,0,0,0,0,0,0
56,2.8760755,-0.6978216,-0.24568212,-0.047382962,-0.057881676,0.018361164,1.7447745,6.3138094,7.394941,0,0,0,0,0,0,0,0,0,0,0,0,0,0,0,0,0,0,0,0,0
57,2.875282,-0.6968696,-0.24725771,-0.0037071202,-0.037641652,0.024752751,1.7495629,6.3377514,7.4117002,0,0,0,0,0,0,0,0,0,0,0,0,0,0,0,0,0,0,0,0,0
58,2.874319,-0.6972768,-0.24941038,0.02505502,-0.045098502,0.0322096,1.7914615,6.3162036,7.2740335,0,0,0,0,0,0,0,0,0,0,0,0,0,0,0,0,0,0,0,0,0
59,2.874754,-0.6975818,-0.2507801,0.011206582,-0.050424825,0.030079072,1.8608932,6.2850785,7.203405,0,0,0,0,0,0,0,0,0,0,0,0,0,0,0,0,0,0,0,0,0
60,2.875822,-0.6974222,-0.25345564,-0.002656503,-0.037663754,0.018381137,1.9722236,6.3162036,7.2824135,0,0,0,0,0,0,0,0,0,0,0,0,0,0,0,0,0,0,0,0,0
61,2.877523,-0.6974836,-0.25478244,5.3929014E-4,-0.00996688,0.006663229,1.9422961,6.3174005,7.136367,0,0,0,0,0,0,0,0,0,0,0,0,0,0,0,0,0,0,0,0,0
62,2.878478,-0.69703174,-0.25490555,-0.021831263,-0.016358467,-0.0029241508,1.8489223,6.2838817,7.2201643,0,0,0,0,0,0,0,0,0,0,0,0,0,0,0,0,0,0,0,0,0
63,2.8792102,-0.6961796,-0.25524777,-0.022896526,-0.014227938,2.7164244E-4,1.9195513,6.3066263,7.347057,0,0,0,0,0,0,0,0,0,0,0,0,0,0,0,0,0,0,0,0,0
64,2.8786037,-0.6961491,-0.255044,0.009061405,-0.008901616,-0.0071852086,1.8046296,6.310218,7.278822,0,0,0,0,0,0,0,0,0,0,0,0,0,0,0,0,0,0,0,0,0
65,2.8781588,-0.69648075,-0.25522003,-0.007982825,-0.012097409,0.009859023,1.8261774,6.2719107,7.1842513,0,0,0,0,0,0,0,0,0,0,0,0,0,0,0,0,0,0,0,0,0
66,2.8784285,-0.6957726,-0.25605258,-0.021831263,-0.020619525,0.013054815,1.9315223,6.292261,7.2836103,0,0,0,0,0,0,0,0,0,0,0,0,0,0,0,0,0,0,0,0,0
67,2.8788428,-0.6951817,-0.25658238,-0.015439676,-0.014227938,0.0013369068,1.9111716,6.2970495,7.2728367,0,0,0,0,0,0,0,0,0,0,0,0,0,0,0,0,0,0,0,0,0
68,2.878885,-0.6947253,-0.2562403,-0.012243883,0.008142615,0.0024021713,1.8537107,6.268319,7.3039613,0,0,0,0,0,0,0,0,0,0,0,0,0,0,0,0,0,0,0,0,0
69,2.877976,-0.6944739,-0.255771,-0.010113354,0.01879526,0.020511666,1.8058267,6.28867,7.3087497,0,0,0,0,0,0,0,0,0,0,0,0,0,0,0,0,0,0,0,0,0
70,2.8770902,-0.69403946,-0.25612566,0.0016045546,-0.01955426,0.021576932,1.8549078,6.2838817,7.2836103,0,0,0,0,0,0,0,0,0,0,0,0,0,0,0,0,0,0,0,0,0
71,2.8766923,-0.6941015,-0.25722107,0.002669819,-0.0046405583,0.02370746,1.9063832,6.2635307,7.257274,0,0,0,0,0,0,0,0,0,0,0,0,0,0,0,0,0,0,0,0,0
72,2.8771472,-0.6939853,-0.2580487,0.007996141,-0.006771087,0.020511666,1.977012,6.2551513,7.290793,0,0,0,0,0,0,0,0,0,0,0,0,0,0,0,0,0,0,0,0,0
73,2.8784053,-0.6943501,-0.25870505,0.0069308765,-0.007836351,-7.93622E-4,1.9746178,6.2850785,7.221361,0,0,0,0,0,0,0,0,0,0,0,0,0,0,0,0,0,0,0,0,0
74,2.8785949,-0.69444716,-0.25841,-0.017570205,-0.0014447649,-0.0093157375,1.846528,6.2790933,7.1902366,0,0,0,0,0,0,0,0,0,0,0,0,0,0,0,0,0,0,0,0,0
75,2.8791816,-0.69364125,-0.25783843,-0.034614436,0.009207879,-0.0029241508,1.869273,6.301838,7.3003697,0,0,0,0,0,0,0,0,0,0,0,0,0,0,0,0,0,0,0,0,0
76,2.8793259,-0.692922,-0.25718388,-0.007982825,0.0038815571,-0.0029241508,1.846528,6.312612,7.3602247,0,0,0,0,0,0,0,0,0,0,0,0,0,0,0,0,0,0,0,0,0
77,2.878744,-0.6933693,-0.25705945,0.018625882,-0.0036101812,0.004563859,1.8309658,6.2934585,7.287202,0,0,0,0,0,0,0,0,0,0,0,0,0,0,0,0,0,0,0,0,0
78,2.8793542,-0.6935807,-0.25740516,0.009038502,-0.01532809,0.01202071,1.9315223,6.228815,7.239318,0,0,0,0,0,0,0,0,0,0,0,0,0,0,0,0,0,0,0,0,0
79,2.879488,-0.69357055,-0.2581425,-0.0026794064,0.007042463,0.009890181,1.9315223,6.320992,7.2500916,0,0,0,0,0,0,0,0,0,0,0,0,0,0,0,0,0,0,0,0,0
80,2.8799012,-0.6937758,-0.25799394,-5.488775E-4,0.0059771985,-0.011415107,1.9027919,6.3293715,7.193828,0,0,0,0,0,0,0,0,0,0,0,0,0,0,0,0,0,0,0,0,0
81,2.879685,-0.69354564,-0.25718135,-0.023984695,0.010238256,-0.0060887854,1.822586,6.292261,7.2249527,0,0,0,0,0,0,0,0,0,0,0,0,0,0,0,0,0,0,0,0,0
82,2.8796997,-0.6924201,-0.25640494,-0.027180487,0.015564579,0.0034985947,1.8788497,6.3078237,7.3877583,0,0,0,0,0,0,0,0,0,0,0,0,0,0,0,0,0,0,0,0,0
83,2.878538,-0.692242,-0.25582522,0.0047774445,0.009172992,0.0034985947,1.785476,6.277896,7.317129,0,0,0,0,0,0,0,0,0,0,0,0,0,0,0,0,0,0,0,0,0
84,2.8776464,-0.6923484,-0.2555739,0.0037121803,0.0049119345,0.020542825,1.8441339,6.2671223,7.314735,0,0,0,0,0,0,0,0,0,0,0,0,0,0,0,0,0,0,0,0,0
85,2.8779979,-0.6923649,-0.25638634,0.01329956,-0.0078712385,0.016281769,1.9865888,6.2671223,7.3207207,0,0,0,0,0,0,0,0,0,0,0,0,0,0,0,0,0,0,0,0,0
86,2.8784633,-0.69290495,-0.2570354,0.010103767,-0.0036101812,0.0013680658,1.9363106,6.252757,7.167492,0,0,0,0,0,0,0,0,0,0,0,0,0,0,0,0,0,0,0,0,0
87,2.8794014,-0.6927279,-0.25695953,-0.011201521,-0.0014796522,-0.010349843,1.9351135,6.304232,7.2979755,0,0,0,0,0,0,0,0,0,0,0,0,0,0,0,0,0,0,0,0,0
88,2.8791287,-0.6927792,-0.25648937,-0.004809935,0.0049119345,-0.011415107,1.8321629,6.2826843,7.2357264,0,0,0,0,0,0,0,0,0,0,0,0,0,0,0,0,0,0,0,0,0
89,2.87921,-0.6924807,-0.25605556,-0.018658374,-0.010001767,-7.62463E-4,1.8525136,6.28029,7.317129,0,0,0,0,0,0,0,0,0,0,0,0,0,0,0,0,0,0,0,0,0
90,2.8797514,-0.691926,-0.25608703,-0.008005729,-0.00574071,-0.0039582564,1.9015948,6.2515597,7.3781815,0,0,0,0,0,0,0,0,0,0,0,0,0,0,0,0,0,0,0,0,0
91,2.8803146,-0.6922365,-0.256104,0.01329956,-0.0046754456,-0.009284578,1.8908207,6.244377,7.277625,0,0,0,0,0,0,0,0,0,0,0,0,0,0,0,0,0,0,0,0,0
92,2.8800669,-0.6924042,-0.25587782,-0.006940464,6.5087655E-4,-0.0018277274,1.8405426,6.289867,7.2165728,0,0,0,0,0,0,0,0,0,0,0,0,0,0,0,0,0,0,0,0,0
93,2.879524,-0.6921624,-0.25564083,-0.022919431,-0.0046754456,-7.62463E-4,1.822586,6.276699,7.290793,0,0,0,0,0,0,0,0,0,0,0,0,0,0,0,0,0,0,0,0,0
94,2.8801425,-0.6911888,-0.25553098,-0.013323795,0.0017289242,0.0013566143,1.9075803,6.2371945,7.4105034,0,0,0,0,0,0,0,0,0,0,0,0,0,0,0,0,0,0,0,0,0
95,2.8798678,-0.69134057,-0.2553836,0.017568873,0.0070552463,0.0066829366,1.8728642,6.232406,7.3243117,0,0,0,0,0,0,0,0,0,0,0,0,0,0,0,0,0,0,0,0,0
96,2.8795424,-0.69146794,-0.25575516,0.0015899071,-0.0057279267,0.014139787,1.8872294,6.230012,7.2620625,0,0,0,0,0,0,0,0,0,0,0,0,0,0,0,0,0,0,0,0,0
97,2.8806136,-0.6913991,-0.25614566,-0.0048016794,0.005989982,0.0045524077,1.9973627,6.2970495,7.3075523,0,0,0,0,0,0,0,0,0,0,0,0,0,0,0,0,0,0,0,0,0
98,2.8809144,-0.69164026,-0.25578347,0.007981494,0.0038594531,-0.018883409,1.8884265,6.2671223,7.2285438,0,0,0,0,0,0,0,0,0,0,0,0,0,0,0,0,0,0,0,0,0
99,2.8812578,-0.6918346,-0.25490108,-0.016519587,0.01025104,-0.018883409,1.8321629,6.253954,7.197419,0,0,0,0,0,0,0,0,0,0,0,0,0,0,0,0,0,0,0,0,0
100,2.881889,-0.6910066,-0.25391328,-0.025041703,-0.0025321336,-0.012491823,1.845331,6.21445,7.3482537,0,0,0,0,0,0,0,0,0,0,0,0,0,0,0,0,0,0,0,0,0
101,2.8824,-0.69049746,-0.25361496,-0.005866944,0.005989982,-7.739146E-4,1.9195513,6.253954,7.501483,0,0,0,0,0,0,0,0,0,0,0,0,0,0,0,0,0,0,0,0,0
102,2.8821316,-0.69091016,-0.25346094,0.03887416,-0.003597398,-0.0050349724,1.857302,6.2491655,7.287202,0,0,0,0,0,0,0,0,0,0,0,0,0,0,0,0,0,0,0,0,0
103,2.8815138,-0.69212854,-0.25400043,-5.406217E-4,-0.015315306,0.0066829366,1.8441339,6.2431803,7.145944,0,0,0,0,0,0,0,0,0,0,0,0,0,0,0,0,0,0,0,0,0
104,2.882355,-0.6913077,-0.25443503,-0.029302761,-0.0046626623,-7.739146E-4,1.977012,6.324583,7.350648,0,0,0,0,0,0,0,0,0,0,0,0,0,0,0,0,0,0,0,0,0
105,2.8827908,-0.6912059,-0.2540243,0.007981494,0.0017289242,-0.014622352,1.882441,6.2575455,7.3207207,0,0,0,0,0,0,0,0,0,0,0,0,0,0,0,0,0,0,0,0,0
106,2.8817883,-0.6915102,-0.25323164,-0.003736415,0.0027941887,-0.012491823,1.7340006,6.2336035,7.2285438,0,0,0,0,0,0,0,0,0,0,0,0,0,0,0,0,0,0,0,0,0
107,2.8806746,-0.6912908,-0.25293386,-0.011193266,-0.0014668691,0.0045524077,1.821389,6.2970495,7.3207207,0,0,0,0,0,0,0,0,0,0,0,0,0,0,0,0,0,0,0,0,0
108,2.879659,-0.69117266,-0.2528816,-5.406217E-4,0.01025104,0.014139787,1.8357542,6.3030353,7.317129,0,0,0,0,0,0,0,0,0,0,0,0,0,0,0,0,0,0,0,0,0
109,2.878943,-0.6911924,-0.25305927,0.0015899071,0.005989982,0.014139787,1.87047,6.2359977,7.2943845,0,0,0,0,0,0,0,0,0,0,0,0,0,0,0,0,0,0,0,0,0
110,2.8785174,-0.69137436,-0.25344115,0.012230035,-0.002551042,0.008830509,1.8920178,6.241983,7.353042,0,0,0,0,0,0,0,0,0,0,0,0,0,0,0,0,0,0,0,0,0
111,2.8794456,-0.6919116,-0.25436556,0.018621622,-0.014268951,0.0056347162,1.9925743,6.240786,7.2860045,0,0,0,0,0,0,0,0,0,0,0,0,0,0,0,0,0,0,0,0,0
112,2.8812218,-0.69232756,-0.2550553,0.014360564,-0.020660536,-0.008213721,2.0141222,6.2551513,7.197419,0,0,0,0,0,0,0,0,0,0,0,0,0,0,0,0,0,0,0,0,0
113,2.8840601,-0.6929041,-0.25573185,-0.013336312,-0.019595273,-0.03910639,2.0296845,6.3054295,7.1399584,0,0,0,0,0,0,0,0,0,0,0,0,0,0,0,0,0,0,0,0,0
114,2.8868122,-0.69228405,-0.25433278,-0.052751094,-0.0014857776,-0.061476942,1.893215,6.292261,7.245303,0,0,0,0,0,0,0,0,0,0,0,0,0,0,0,0,0,0,0,0,0
115,2.8868146,-0.69170237,-0.25277197,-0.0495553,0.015558453,-0.05615062,1.7340006,6.262334,7.362619,0,0,0,0,0,0,0,0,0,0,0,0,0,0,0,0,0,0,0,0,0
116,2.884506,-0.6912267,-0.25089252,-0.033576336,0.017688982,-0.023127424,1.5711949,6.232406,7.3997293,0,0,0,0,0,0,0,0,0,0,0,0,0,0,0,0,0,0,0,0,0
117,2.8820672,-0.6904562,-0.24951307,5.121259E-4,0.0070363376,0.020548418,1.6298528,6.2611365,7.45719,0,0,0,0,0,0,0,0,0,0,0,0,0,0,0,0,0,0,0,0,0
118,2.8789105,-0.69081146,-0.25037214,0.04205744,-0.012138422,0.046114765,1.7567455,6.2755017,7.4248686,0,0,0,0,0,0,0,0,0,0,0,0,0,0,0,0,0,0,0,0,0
119,2.876062,-0.6921574,-0.2524889,0.04951429,-0.0057468354,0.053571615,1.857302,6.2359977,7.2081933,0,0,0,0,0,0,0,0,0,0,0,0,0,0,0,0,0,0,0,0,0
120,2.876055,-0.69273674,-0.2547711,0.02075215,-0.013203686,0.0450495,2.0632033,6.2874727,7.2285438,0,0,0,0,0,0,0,0,0,0,0,0,0,0,0,0,0,0,0,0,0
121,2.8781476,-0.69291204,-0.25596148,0.0047731837,-0.007877364,0.008830509,2.1003134,6.292261,7.227347,0,0,0,0,0,0,0,0,0,0,0,0,0,0,0,0,0,0,0,0,0
122,2.8792415,-0.69323516,-0.25596,-0.0048141964,0.0070363376,-0.024192687,1.9446903,6.2970495,7.2225585,0,0,0,0,0,0,0,0,0,0,0,0,0,0,0,0,0,0,0,0,0
123,2.8805132,-0.69281757,-0.25458723,-0.030380543,0.009166867,-0.03378007,1.8608932,6.2790933,7.3291,0,0,0,0,0,0,0,0,0,0,0,0,0,0,0,0,0,0,0,0,0
124,2.8814418,-0.69244766,-0.25326088,-0.013336312,-0.014268951,-0.04123692,1.8022354,6.2551513,7.335086,0,0,0,0,0,0,0,0,0,0,0,0,0,0,0,0,0,0,0,0,0
125,2.881752,-0.6926298,-0.25281182,-0.001618403,-0.01639948,-0.024192687,1.8010383,6.252757,7.3075523,0,0,0,0,0,0,0,0,0,0,0,0,0,0,0,0,0,0,0,0,0
126,2.8815813,-0.69266284,-0.25259492,5.121259E-4,0.0038405445,-0.011409515,1.8561049,6.2695165,7.3183265,0,0,0,0,0,0,0,0,0,0,0,0,0,0,0,0,0,0,0,0,0
127,2.8809812,-0.6928782,-0.2519508,5.038701E-4,0.0038277614,-0.007137005,1.8046296,6.2790933,7.2584715,0,0,0,0,0,0,0,0,0,0,0,0,0,0,0,0,0,0,0,0,0
128,2.8799717,-0.69297236,-0.2517825,-0.004822452,-0.0068248827,0.0024503744,1.7711107,6.2611365,7.277625,0,0,0,0,0,0,0,0,0,0,0,0,0,0,0,0,0,0,0,0,0
129,2.878569,-0.69253165,-0.25193137,-0.013344567,-0.0014985608,0.017364077,1.8046296,6.289867,7.3314943,0,0,0,0,0,0,0,0,0,0,0,0,0,0,0,0,0,0,0,0,0
130,2.877657,-0.6922691,-0.252053,-5.613944E-4,-0.0036290896,0.01842934,1.845331,6.2946553,7.349451,0,0,0,0,0,0,0,0,0,0,0,0,0,0,0,0,0,0,0,0,0
131,2.8769777,-0.6922475,-0.25256118,0.005830192,0.0016972326,0.015233547,1.8884265,6.2467713,7.290793,0,0,0,0,0,0,0,0,0,0,0,0,0,0,0,0,0,0,0,0,0
132,2.876843,-0.6924594,-0.2527999,0.0068954565,-0.0014985608,0.0013851101,1.905186,6.2575455,7.2716393,0,0,0,0,0,0,0,0,0,0,0,0,0,0,0,0,0,0,0,0,0
133,2.8767226,-0.6927814,-0.25260377,0.0026343989,0.0144804055,-0.0050064763,1.858499,6.2587423,7.2345295,0,0,0,0,0,0,0,0,0,0,0,0,0,0,0,0,0,0,0,0,0
134,2.8765707,-0.6924882,-0.25175592,-0.012279303,0.011284612,-0.0050064763,1.8525136,6.28029,7.290793,0,0,0,0,0,0,0,0,0,0,0,0,0,0,0,0,0,0,0,0,0
135,2.8763204,-0.6925099,-0.25163844,-5.613944E-4,-0.010020676,-0.0060717408,1.8405426,6.268319,7.314735,0,0,0,0,0,0,0,0,0,0,0,0,0,0,0,0,0,0,0,0,0
136,2.876025,-0.69254273,-0.2512087,-0.004822452,0.01554567,-7.454188E-4,1.8237832,6.2467713,7.305158,0,0,0,0,0,0,0,0,0,0,0,0,0,0,0,0,0,0,0,0,0
137,2.8761885,-0.692329,-0.25102618,-0.004822452,-0.0057596182,3.1984565E-4,1.8800468,6.2348003,7.3219175,0,0,0,0,0,0,0,0,0,0,0,0,0,0,0,0,0,0,0,0,0
138,2.876392,-0.69231766,-0.25135648,0.005830192,-0.007890147,-0.0060717408,1.8872294,6.276699,7.3434653,0,0,0,0,0,0,0,0,0,0,0,0,0,0,0,0,0,0,0,0,0
139,2.8764246,-0.69262314,-0.25068933,-5.613944E-4,0.01554567,-0.0124633275,1.8369513,6.2491655,7.230938,0,0,0,0,0,0,0,0,0,0,0,0,0,0,0,0,0,0,0,0,0
140,2.8759842,-0.69248456,-0.2501476,-0.01867089,0.0070235548,-0.007137005,1.8106151,6.2587423,7.2704425,0,0,0,0,0,0,0,0,0,0,0,0,0,0,0,0,0,0,0,0,0
141,2.8756046,-0.6919721,-0.24952076,-0.012279303,6.3196814E-4,-0.0028759476,1.8022354,6.2731075,7.3554363,0,0,0,0,0,0,0,0,0,0,0,0,0,0,0,0,0,0,0,0,0
142,2.874782,-0.69191843,-0.24943909,0.007960721,-0.012151205,-7.454188E-4,1.8177977,6.256348,7.3674073,0,0,0,0,0,0,0,0,0,0,0,0,0,0,0,0,0,0,0,0,0
143,2.874653,-0.69256043,-0.25017366,0.018613365,-0.016412262,3.1984565E-4,1.8728642,6.2587423,7.253683,0,0,0,0,0,0,0,0,0,0,0,0,0,0,0,0,0,0,0,0,0
144,2.8739054,-0.69292116,-0.24996424,0.0036996633,0.0144804055,0.0035156389,1.8249803,6.2635307,7.2357264,0,0,0,0,0,0,0,0,0,0,0,0,0,0,0,0,0,0,0,0,0
145,2.873248,-0.6928537,-0.24965833,-0.016540362,0.0038277614,0.0013851101,1.8142064,6.2671223,7.275231,0,0,0,0,0,0,0,0,0,0,0,0,0,0,0,0,0,0,0,0,0
146,2.8736475,-0.6923035,-0.24970546,-0.006952981,-0.0068248827,-0.007137005,1.893215,6.2731075,7.38297,0,0,0,0,0,0,0,0,0,0,0,0,0,0,0,0,0,0,0,0,0
147,2.8736389,-0.6926752,-0.24963559,0.016482836,-0.004694354,-0.013528592,1.834557,6.2491655,7.2860045,0,0,0,0,0,0,0,0,0,0,0,0,0,0,0,0,0,0,0,0,0
148,2.8730435,-0.69315964,-0.24904935,-0.0026919232,0.013415141,-0.00820227,1.7866731,6.2755017,7.2165728,0,0,0,0,0,0,0,0,0,0,0,0,0,0,0,0,0,0,0,0,0
149,2.8724794,-0.6930698,-0.24854614,-0.009083509,0.002762497,-0.007137005,1.8154035,6.3269773,7.302764,0,0,0,0,0,0,0,0,0,0,0,0,0,0,0,0,0,0,0,0,0
150,2.872249,-0.6929951,-0.24817735,0.005830192,-0.0057596182,-0.011398063,1.8429368,6.274305,7.362619,0,0,0,0,0,0,0,0,0,0,0,0,0,0,0,0,0,0,0,0,0
151,2.8722708,-0.69351333,-0.24806993,0.026070217,-0.0014985608,-0.009267534,1.8429368,6.250363,7.3326917,0,0,0,0,0,0,0,0,0,0,0,0,0,0,0,0,0,0,0,0,0
152,2.871615,-0.6944484,-0.24813114,0.020743893,-0.007890147,-0.0018106832,1.8010383,6.220435,7.2201643,0,0,0,0,0,0,0,0,0,0,0,0,0,0,0,0,0,0,0,0,0
153,2.871809,-0.69465953,-0.24851759,-0.006952981,-0.017477527,0.0024503744,1.8956091,6.2850785,7.287202,0,0,0,0,0,0,0,0,0,0,0,0,0,0,0,0,0,0,0,0,0
154,2.8715236,-0.6947587,-0.2488335,0.017548101,0.0059582903,-0.009267534,1.8381484,6.330569,7.2608657,0,0,0,0,0,0,0,0,0,0,0,0,0,0,0,0,0,0,0,0,0
155,2.8710299,-0.6956203,-0.2481064,0.007960721,6.3196814E-4,-0.025246501,1.785476,6.3748612,7.229741,0,0,0,0,0,0,0,0,0,0,0,0,0,0,0,0,0,0,0,0,0
156,2.870337,-0.6957659,-0.24712999,-0.006952981,0.010219348,-0.0124633275,1.7244238,6.289867,7.2225585,0,0,0,0,0,0,0,0,0,0,0,0,0,0,0,0,0,0,0,0,0
157,2.8693576,-0.69547427,-0.24645677,-0.009083509,-0.0068248827,-0.011398063,1.7112557,6.277896,7.317129,0,0,0,0,0,0,0,0,0,0,0,0,0,0,0,0,0,0,0,0,0
158,2.8679996,-0.69555235,-0.24657984,0.01009125,-0.02067332,0.012037754,1.7447745,6.3197947,7.3291,0,0,0,0,0,0,0,0,0,0,0,0,0,0,0,0,0,0,0,0,0
159,2.8661706,-0.6959576,-0.24746391,0.028200746,-0.007890147,0.025886191,1.7914615,6.312612,7.2716393,0,0,0,0,0,0,0,0,0,0,0,0,0,0,0,0,0,0,0,0,0
160,2.8644738,-0.69682217,-0.24902664,0.01967863,-0.01854279,0.026951456,1.8369513,6.277896,7.1722803,0,0,0,0,0,0,0,0,0,0,0,0,0,0,0,0,0,0,0,0,0
161,2.863911,-0.69662696,-0.25034994,-0.010148774,-0.013216469,0.02055987,1.8968062,6.2958527,7.277625,0,0,0,0,0,0,0,0,0,0,0,0,0,0,0,0,0,0,0,0,0
162,2.8635132,-0.69634134,-0.25073949,-0.0058877165,0.0038277614,0.021625135,1.8537107,6.2934585,7.3195233,0,0,0,0,0,0,0,0,0,0,0,0,0,0,0,0,0,0,0,0,0
163,2.8620627,-0.6958452,-0.25097057,-0.004822452,0.008088819,0.01842934,1.8381484,6.335357,7.3219175,0,0,0,0,0,0,0,0,0,0,0,0,0,0,0,0,0,0,0,0,0
164,2.8611343,-0.6960556,-0.25105515,0.004764928,-0.0068248827,0.009907225,1.785476,6.2994437,7.2010107,0,0,0,0,0,0,0,0,0,0,0,0,0,0,0,0,0,0,0,0,0
165,2.8604503,-0.695788,-0.25144115,-0.017605625,-0.002563825,0.01842934,1.8177977,6.276699,7.2608657,0,0,0,0,0,0,0,0,0,0,0,0,0,0,0,0,0,0,0,0,0
166,2.8606813,-0.6950606,-0.25208148,-0.010148774,-0.007890147,0.012037754,1.927931,6.300641,7.3542395,0,0,0,0,0,0,0,0,0,0,0,0,0,0,0,0,0,0,0,0,0
167,2.860427,-0.6954834,-0.25236735,0.014352308,6.3196814E-4,0.0045809033,1.857302,6.300641,7.2010107,0,0,0,0,0,0,0,0,0,0,0,0,0,0,0,0,0,0,0,0,0
168,2.8602364,-0.69575065,-0.252393,-0.010148774,0.0059582903,0.005646168,1.858499,6.3066263,7.2105875,0,0,0,0,0,0,0,0,0,0,0,0,0,0,0,0,0,0,0,0,0
169,2.8608754,-0.6951208,-0.25217667,-0.022931946,-0.0014985608,-0.0050064763,1.9015948,6.2755017,7.3159323,0,0,0,0,0,0,0,0,0,0,0,0,0,0,0,0,0,0,0,0,0
170,2.861609,-0.69478285,-0.2520672,-0.0037571876,-0.0068248827,-0.011398063,1.8549078,6.2707133,7.2883987,0,0,0,0,0,0,0,0,0,0,0,0,0,0,0,0,0,0,0,0,0
171,2.8614333,-0.6948766,-0.25114393,-0.004822452,0.019806728,-0.0060717408,1.7998412,6.2958527,7.241712,0,0,0,0,0,0,0,0,0,0,0,0,0,0,0,0,0,0,0,0,0
172,2.8616602,-0.69460255,-0.25100306,-0.015475096,-0.0110859405,-0.0018106832,1.8393455,6.289867,7.251289,0,0,0,0,0,0,0,0,0,0,0,0,0,0,0,0,0,0,0,0,0
173,2.8621235,-0.6943138,-0.25112507,-0.02825827,-0.004694354,-0.013528592,1.881244,6.301838,7.3087497,0,0,0,0,0,0,0,0,0,0,0,0,0,0,0,0,0,0,0,0,0
174,2.8624396,-0.6937889,-0.25009215,-0.014409832,0.0144804055,-0.013528592,1.7842789,6.2587423,7.311144,0,0,0,0,0,0,0,0,0,0,0,0,0,0,0,0,0,0,0,0,0
175,2.8623307,-0.693492,-0.24911463,-0.014409832,0.01554567,-0.0028759476,1.7938557,6.2934585,7.3291,0,0,0,0,0,0,0,0,0,0,0,0,0,0,0,0,0,0,0,0,0
176,2.8614056,-0.69329894,-0.24837254,-0.004822452,0.010219348,3.1984565E-4,1.7423803,6.2755017,7.301567,0,0,0,0,0,0,0,0,0,0,0,0,0,0,0,0,0,0,0,0,0
177,2.8604279,-0.69333625,-0.24805753,0.0068954565,0.013415141,0.0131030185,1.7663223,6.2719107,7.341071,0,0,0,0,0,0,0,0,0,0,0,0,0,0,0,0,0,0,0,0,0
178,2.8591552,-0.6937668,-0.24774802,0.02926601,0.019806728,0.01842934,1.7914615,6.253954,7.3326917,0,0,0,0,0,0,0,0,0,0,0,0,0,0,0,0,0,0,0,0,0
179,2.8573852,-0.69484645,-0.24825317,0.026070217,0.0038277614,0.042930424,1.7878702,6.228815,7.161506,0,0,0,0,0,0,0,0,0,0,0,0,0,0,0,0,0,0,0,0,0
180,2.8561697,-0.69451565,-0.24981011,0.0026343989,-0.010020676,0.046126217,1.9063832,6.2216325,7.3195233,0,0,0,0,0,0,0,0,0,0,0,0,0,0,0,0,0,0,0,0,0
181,2.8557484,-0.69453084,-0.2515118,0.016482836,0.0016972326,0.03547357,1.9674352,6.2348003,7.305158,0,0,0,0,0,0,0,0,0,0,0,0,0,0,0,0,0,0,0,0,0
182,2.8560166,-0.69479775,-0.25186366,0.026070217,-4.332963E-4,0.008841961,1.9087774,6.310218,7.2441063,0,0,0,0,0,0,0,0,0,0,0,0,0,0,0,0,0,0,0,0,0
183,2.8555174,-0.6953751,-0.25172898,0.01967863,0.027263578,0.016298812,1.8106151,6.2814875,7.157915,0,0,0,0,0,0,0,0,0,0,0,0,0,0,0,0,0,0,0,0,0
184,2.8537776,-0.6953196,-0.25030956,0.012221779,0.037916224,0.017364077,1.7687165,6.2491655,7.3314943,0,0,0,0,0,0,0,0,0,0,0,0,0,0,0,0,0,0,0,0,0
185,2.8526404,-0.69586116,-0.25084344,0.03459233,-0.0036290896,0.030147249,1.8489223,6.2719107,7.3793783,0,0,0,0,0,0,0,0,0,0,0,0,0,0,0,0,0,0,0,0,0
186,2.8494,-0.69643545,-0.25048587,0.085725024,0.017676199,0.038669366,1.6226702,6.3497224,7.6056304,0,0,0,0,0,0,0,0,0,0,0,0,0,0,0,0,0,0,0,0,0
187,2.842574,-0.70008564,-0.251782,0.14751036,0.033655167,0.09725891,1.5819688,6.3533134,7.2740335,0,0,0,0,0,0,0,0,0,0,0,0,0,0,0,0,0,0,0,0,0
188,2.8352416,-0.70391077,-0.2552007,0.15070616,-0.017477527,0.13773896,1.7782934,6.310218,7.1986165,0,0,0,0,0,0,0,0,0,0,0,0,0,0,0,0,0,0,0,0,0
189,2.828585,-0.70754945,-0.26200765,0.14751036,-0.060088105,0.15478319,1.9231426,6.366482,7.1411557,0,0,0,0,0,0,0,0,0,0,0,0,0,0,0,0,0,0,0,0,0
190,2.8243353,-0.71011466,-0.26874062,0.14537983,-0.036652286,0.12708631,2.130241,6.422745,7.394941,0,0,0,0,0,0,0,0,0,0,0,0,0,0,0,0,0,0,0,0,0
191,2.8225543,-0.71253,-0.27143827,0.20716517,0.050699398,0.12175999,2.047641,6.3162036,7.090877,0,0,0,0,0,0,0,0,0,0,0,0,0,0,0,0,0,0,0,0,0
192,2.8147216,-0.7182027,-0.27410892,0.10916084,0.06774363,0.12495578,1.8644845,6.3281746,6.7856164,0,0,0,0,0,0,0,0,0,0,0,0,0,0,0,0,0,0,0,0,0
193,2.8085356,-0.7192986,-0.27711475,0.06655026,0.0059582903,0.15584846,1.9901801,6.5472436,7.2488947,0,0,0,0,0,0,0,0,0,0,0,0,0,0,0,0,0,0,0,0,0
194,2.8061814,-0.72195435,-0.28120837,0.13041925,0.07619224,0.12075784,2.3062148,6.65618,6.9508166,0,0,0,0,0,0,0,0,0,0,0,0,0,0,0,0,0,0,0,0,0
195,2.801758,-0.7228895,-0.2770389,-0.019783026,0.25089562,0.07388621,1.9614497,6.4754176,6.765266,0,0,0,0,0,0,0,0,0,0,0,0,0,0,0,0,0,0,0,0,0
196,2.796599,-0.71866494,-0.27243915,-0.07837257,0.06980065,0.070690416,1.4454993,6.3054295,7.7085814,0,0,0,0,0,0,0,0,0,0,0,0,0,0,0,0,0,0,0,0,0
197,2.789682,-0.7188484,-0.27158305,0.0633076,0.04316904,0.099452555,1.4490906,6.6849103,7.641544,0,0,0,0,0,0,0,0,0,0,0,0,0,0,0,0,0,0,0,0,0
198,2.778215,-0.7200394,-0.26982695,0.010044378,0.21893767,0.14099787,1.5688007,7.084742,7.891738,0,0,0,0,0,0,0,0,0,0,0,0,0,0,0,0,0,0,0,0,0
199,2.771819,-0.71662205,-0.26333168,-0.061328337,0.14010811,0.053646185,1.4024036,7.266701,9.136723,0,0,0,0,0,0,0,0,0,0,0,0,0,0,0,0,0,0,0,0,0
200,2.7660267,-0.7165136,-0.26095495,0.28594786,0.11560702,0.12821469,1.287482,7.108684,8.977509,0,0,0,0,0,0,0,0,0,0,0,0,0,0,0,0,0,0,0,0,0
201,2.7371852,-0.73464555,-0.26110286,0.5149797,0.40642422,0.32422334,1.5005659,7.120655,7.8199115,0,0,0,0,0,0,0,0,0,0,0,0,0,0,0,0,0,0,0,0,0
202,2.7246552,-0.74195176,-0.26080674,0.4851523,0.41494632,0.31144017,1.8740613,7.164948,7.1220016,0,0,0,0,0,0,0,0,0,0,0,0,0,0,0,0,0,0,0,0,0
203,2.7115679,-0.75313026,-0.25653666,0.35732058,0.51082015,0.22302322,2.2798786,7.288249,7.218967,0,0,0,0,0,0,0,0,0,0,0,0,0,0,0,0,0,0,0,0,0
204,2.7007644,-0.7641551,-0.24182634,0.38501745,0.58751917,0.009970343,1.6226702,7.0619974,7.335086,0,0,0,0,0,0,0,0,0,0,0,0,0,0,0,0,0,0,0,0,0
205,2.6880264,-0.7706781,-0.2328456,0.44573754,0.6599572,0.31570125,1.0648212,7.138612,7.0813003,0,0,0,0,0,0,0,0,0,0,0,0,0,0,0,0,0,0,0,0,0
206,2.6654956,-0.78257585,-0.22803295,0.42336696,0.52786434,0.44353297,1.9363106,6.9961567,6.601263,0,0,0,0,0,0,0,0,0,0,0,0,0,0,0,0,0,0,0,0,0
207,2.6531973,-0.79722977,-0.2223107,0.6609209,0.17419657,-0.2946953,0.6278794,8.40275,7.183054,0,0,0,0,0,0,0,0,0,0,0,0,0,0,0,0,0,0,0,0,0
208,2.6521487,-0.82072055,-0.22349061,0.6790304,0.1646092,0.061103035,2.1625626,6.9614406,5.9069443,0,0,0,0,0,0,0,0,0,0,0,0,0,0,0,0,0,0,0,0,0
209,2.6454833,-0.8370156,-0.2135232,0.4084533,0.5065591,3.8296255E-4,1.6825253,7.218817,5.7525187,0,0,0,0,0,0,0,0,0,0,0,0,0,0,0,0,0,0,0,0,0
210,2.6439488,-0.8434243,-0.19791268,0.22306317,0.53100663,-0.011288874,1.8596961,7.0991073,6.8418803,0,0,0,0,0,0,0,0,0,0,0,0,0,0,0,0,0,0,0,0,0
211,2.6469433,-0.84888214,-0.19312768,0.4350508,0.30517057,-0.13485955,1.9255368,7.0177045,6.741324,0,0,0,0,0,0,0,0,0,0,0,0,0,0,0,0,0,0,0,0,0
212,2.6480193,-0.86702496,-0.18279694,0.53838146,0.27001685,-0.1902533,1.4359225,6.854899,5.674707,0,0,0,0,0,0,0,0,0,0,0,0,0,0,0,0,0,0,0,0,0
213,2.649564,-0.88237447,-0.1710129,0.3295896,0.41702333,-0.16149116,1.4981717,6.5173163,4.8104,0,0,0,0,0,0,0,0,0,0,0,0,0,0,0,0,0,0,0,0,0
214,2.647198,-0.8877251,-0.16122574,0.082448274,0.5917267,-0.21475437,1.1366472,6.6118875,4.7553334,0,0,0,0,0,0,0,0,0,0,0,0,0,0,0,0,0,0,0,0,0
215,2.6555748,-0.88902175,-0.13240938,-0.013425527,0.45856863,-0.2797355,0.7978677,6.6214643,5.3933883,0,0,0,0,0,0,0,0,0,0,0,0,0,0,0,0,0,0,0,0,0
216,2.6640449,-0.89295536,-0.11231192,0.1474294,0.017549166,-0.2680176,0.623091,6.7794814,5.010316,0,0,0,0,0,0,0,0,0,0,0,0,0,0,0,0,0,0,0,0,0
217,2.6707425,-0.89879405,-0.10172947,0.062208246,0.17414303,-0.24245125,0.65541273,6.6130843,4.782867,0,0,0,0,0,0,0,0,0,0,0,0,0,0,0,0,0,0,0,0,0
218,2.674529,-0.89493763,-0.07834491,-0.20943418,0.5033097,-0.12846796,0.26156655,7.150583,5.4759884,0,0,0,0,0,0,0,0,0,0,0,0,0,0,0,0,0,0,0,0,0
219,2.6742299,-0.8870541,-0.05813097,-0.23713106,0.4447202,-0.050703656,-0.010175358,7.38282,5.724985,0,0,0,0,0,0,0,0,0,0,0,0,0,0,0,0,0,0,0,0,0
220,2.6713538,-0.8828002,-0.04797096,-0.26908898,0.23273258,-0.026202576,-0.3561375,7.5049243,6.2624836,0,0,0,0,0,0,0,0,0,0,0,0,0,0,0,0,0,0,0,0,0
221,2.6773512,-0.87524176,-0.053590428,-0.13060461,-0.83572763,-0.26588708,-0.20290859,7.3361335,6.6503444,0,0,0,0,0,0,0,0,0,0,0,0,0,0,0,0,0,0,0,0,0
222,2.6930757,-0.8734588,-0.059673928,-0.30104694,-0.24237536,-0.39265352,-0.56443304,6.3760586,4.997148,0,0,0,0,0,0,0,0,0,0,0,0,0,0,0,0,0,0,0,0,0
223,2.7105758,-0.8470923,-0.033041757,-0.80917805,0.033528134,-0.43206832,-2.271499,5.3357778,5.4795794,0,0,0,0,0,0,0,0,0,0,0,0,0,0,0,0,0,0,0,0,0
224,2.724083,-0.824831,-0.013766895,-0.9934688,-0.29670385,-0.5567043,-1.8166006,5.9032035,7.951593,0,0,0,0,0,0,0,0,0,0,0,0,0,0,0,0,0,0,0,0,0
225,2.7457423,-0.80058527,-7.829345E-4,-0.56097144,0.022875488,-0.24351652,-1.5173253,6.2850785,6.4803557,0,0,0,0,0,0,0,0,0,0,0,0,0,0,0,0,0,0,0,0,0
226,2.743627,-0.77319497,0.008900013,-0.8219612,0.48413497,0.24970092,-1.9937714,4.5648446,6.7736454,0,0,0,0,0,0,0,0,0,0,0,0,0,0,0,0,0,0,0,0,0
227,2.7082603,-0.7361824,0.023679897,-1.2214226,1.499352,0.9655413,0.3812766,7.793426,8.469937,0,0,0,0,0,0,0,0,0,0,0,0,0,0,0,0,0,0,0,0,0
228,2.6736686,-0.70506865,0.07156592,-0.9252791,2.1928391,0.46593228,-0.13587095,7.310994,7.8067436,0,0,0,0,0,0,0,0,0,0,0,0,0,0,0,0,0,0,0,0,0
229,2.6683993,-0.6860373,0.09801916,-1.4685639,1.4886993,-0.10504945,-0.25917232,6.489783,7.221361,0,0,0,0,0,0,0,0,0,0,0,0,0,0,0,0,0,0,0,0,0
230,2.6609914,-0.6274509,0.13761783,-1.8126444,1.1925558,0.22944358,-1.1354501,6.477812,9.779566,0,0,0,0,0,0,0,0,0,0,0,0,0,0,0,0,0,0,0,0,0
231,2.628256,-0.57834584,0.15353194,-1.1937257,0.6801636,0.8728633,-1.7998412,5.9474964,9.996241,0,0,0,0,0,0,0,0,0,0,0,0,0,0,0,0,0,0,0,0,0
232,2.5901017,-0.5714535,0.13542463,-0.007021158,0.14433561,0.87392855,-0.13227965,5.1933227,8.2137575,0,0,0,0,0,0,0,0,0,0,0,0,0,0,0,0,0,0,0,0,0
233,2.5683322,-0.5805726,0.13430414,0.2848613,0.20931673,0.39242902,-1.9782091,5.400421,7.9444103,0,0,0,0,0,0,0,0,0,0,0,0,0,0,0,0,0,0,0,0,0
234,2.5563052,-0.589315,0.13333923,0.5788743,-0.58963156,0.8164043,-2.3852234,5.137059,7.597251,0,0,0,0,0,0,0,0,0,0,0,0,0,0,0,0,0,0,0,0,0
235,2.5308807,-0.6050273,0.08020499,-0.14337501,-0.5843053,1.5599588,1.9147629,5.9965773,7.599645,0,0,0,0,0,0,0,0,0,0,0,0,0,0,0,0,0,0,0,0,0
236,2.4712696,-0.59429735,0.029471027,-0.42993113,-0.6471559,1.1232004,0.078410104,6.5089364,7.918074,0,0,0,0,0,0,0,0,0,0,0,0,0,0,0,0,0,0,0,0,0
237,2.4440887,-0.597827,-0.0013100231,0.2965792,-0.15606897,0.66407144,1.0684125,5.740398,8.262839,0,0,0,0,0,0,0,0,0,0,0,0,0,0,0,0,0,0,0,0,0
238,2.4302647,-0.6090573,-0.008251689,0.92934626,0.0015901735,0.6321135,0.5943606,6.6214643,9.610775,0,0,0,0,0,0,0,0,0,0,0,0,0,0,0,0,0,0,0,0,0
239,2.3924942,-0.6345817,-0.048496176,-0.01234748,-1.4152116,0.8004253,-0.6206968,5.222053,6.8059673,0,0,0,0,0,0,0,0,0,0,0,0,0,0,0,0,0,0,0,0,0
240,2.350254,-0.6030455,-0.11421759,-1.5878736,-1.6517003,0.5511534,1.5999253,7.2798696,6.4444427,0,0,0,0,0,0,0,0,0,0,0,0,0,0,0,0,0,0,0,0,0
241,2.3275008,-0.5580789,-0.16328648,-0.9583023,-0.6492864,0.68218094,1.8561049,5.587169,7.895329,0,0,0,0,0,0,0,0,0,0,0,0,0,0,0,0,0,0,0,0,0
242,2.3089275,-0.55017555,-0.17027655,-0.027261183,0.12516084,0.35301426,0.516549,4.5768156,6.7628717,0,0,0,0,0,0,0,0,0,0,0,0,0,0,0,0,0,0,0,0,0
243,2.2952752,-0.55189955,-0.15539102,-0.15189712,1.2074695,0.43077856,-0.20290859,5.970241,7.975535,0,0,0,0,0,0,0,0,0,0,0,0,0,0,0,0,0,0,0,0,0
244,2.2725701,-0.54461396,-0.12678882,-0.0016990968,1.0295637,0.6917742,0.374094,6.1761427,9.866954,0,0,0,0,0,0,0,0,0,0,0,0,0,0,0,0,0,0,0,0,0
245,2.2401829,-0.55552,-0.10217446,0.6108279,1.2639219,0.6768605,0.25917232,5.746383,9.015816,0,0,0,0,0,0,0,0,0,0,0,0,0,0,0,0,0,0,0,0,0
246,2.202891,-0.57235724,-0.07876182,0.41908035,0.99547523,0.7759301,-0.25677812,5.9510875,7.927651,0,0,0,0,0,0,0,0,0,0,0,0,0,0,0,0,0,0,0,0,0
247,2.18515,-0.5734523,-0.069280036,0.13465475,1.5291727,0.8174754,1.0552444,5.492598,9.113977,0,0,0,0,0,0,0,0,0,0,0,0,0,0,0,0,0,0,0,0,0
248,2.1531415,-0.5817309,-0.031883843,0.59378374,1.4631263,0.7397111,0.6793547,6.0803747,10.205733,0,0,0,0,0,0,0,0,0,0,0,0,0,0,0,0,0,0,0,0,0
249,2.1216612,-0.60196143,-0.010222824,0.59165317,0.9763005,0.7727343,0.97384155,5.493795,9.039758,0,0,0,0,0,0,0,0,0,0,0,0,0,0,0,0,0,0,0,0,0
250,2.0955458,-0.6156566,-0.005838275,0.3754045,0.5107799,0.60335726,1.0181342,4.7994766,8.224532,0,0,0,0,0,0,0,0,0,0,0,0,0,0,0,0,0,0,0,0,0
251,2.0705569,-0.6325199,0.009082997,0.49790993,0.7941403,0.4552855,0.19692309,6.5316815,8.0066595,0,0,0,0,0,0,0,0,0,0,0,0,0,0,0,0,0,0,0,0,0
252,2.0679975,-0.63366,0.0118059525,0.4361246,0.8665782,0.602292,0.9187749,2.158672,7.2345295,0,0,0,0,0,0,0,0,0,0,0,0,0,0,0,0,0,0,0,0,0
253,2.0538087,-0.64827776,0.039822575,0.22839803,1.1286333,-0.40331763,0.30825347,6.0899515,6.855048,0,0,0,0,0,0,0,0,0,0,0,0,0,0,0,0,0,0,0,0,0
254,2.050049,-0.64884424,0.072665766,-0.15935823,0.63328534,0.6140099,-0.362123,5.4315457,8.140735,0,0,0,0,0,0,0,0,0,0,0,0,0,0,0,0,0,0,0,0,0
255,2.0310445,-0.63762313,0.06958702,-0.33832267,0.29346597,0.28271267,0.82779527,5.1526213,8.390929,0,0,0,0,0,0,0,0,0,0,0,0,0,0,0,0,0,0,0,0,0
256,2.0196698,-0.6344674,0.062411014,-0.03578756,-0.014395451,0.121857725,1.1067197,6.370073,7.9958854,0,0,0,0,0,0,0,0,0,0,0,0,0,0,0,0,0,0,0,0,0
257,2.0218499,-0.63243324,0.059847344,-0.14870559,-0.09642081,-0.15937208,0.32022446,5.0329113,7.930045,0,0,0,0,0,0,0,0,0,0,0,0,0,0,0,0,0,0,0,0,0
258,2.0233328,-0.6255184,0.06406732,-0.1540319,0.37549132,0.013200757,-0.29029694,5.981015,7.751677,0,0,0,0,0,0,0,0,0,0,0,0,0,0,0,0,0,0,0,0,0
259,2.0212047,-0.62886864,0.08344506,0.44038564,0.7962708,0.19642624,0.091578215,5.612308,9.904064,0,0,0,0,0,0,0,0,0,0,0,0,0,0,0,0,0,0,0,0,0
260,2.0152707,-0.6541131,0.09558012,0.90798986,0.31682828,0.23164308,-0.6817489,5.526117,8.450784,0,0,0,0,0,0,0,0,0,0,0,0,0,0,0,0,0,0,0,0,0
261,2.0072496,-0.68021435,0.09040605,0.70452434,-0.12632172,0.14322613,-0.09876082,5.578789,7.6666827,0,0,0,0,0,0,0,0,0,0,0,0,0,0,0,0,0,0,0,0,0
262,2.0056522,-0.68662864,0.08040946,0.37855342,-0.6621497,-0.003780357,-0.02932897,5.611111,7.921665,0,0,0,0,0,0,0,0,0,0,0,0,0,0,0,0,0,0,0,0,0
263,2.00276,-0.69838756,0.05544081,0.3828145,-0.9540322,-0.1103068,-0.40402153,6.468235,7.6140103,0,0,0,0,0,0,0,0,0,0,0,0,0,0,0,0,0,0,0,0,0
264,1.997324,-0.7128652,0.025605004,0.4030545,-0.88798577,-0.03786882,-0.11192893,6.2551513,6.679075,0,0,0,0,0,0,0,0,0,0,0,0,0,0,0,0,0,0,0,0,0
265,1.9940311,-0.72908145,0.009286489,0.5212989,-0.40968207,-0.120959446,0.18854338,6.2611365,6.6563296,0,0,0,0,0,0,0,0,0,0,0,0,0,0,0,0,0,0,0,0,0
266,1.992771,-0.74028265,0.009193613,0.694937,0.08779643,-0.22535536,0.22804771,6.525696,6.8682165,0,0,0,0,0,0,0,0,0,0,0,0,0,0,0,0,0,0,0,0,0
267,2.0027323,-0.7629952,0.021845145,0.658718,0.06116482,-0.2903365,-0.3824737,6.868067,7.239318,0,0,0,0,0,0,0,0,0,0,0,0,0,0,0,0,0,0,0,0,0
268,2.0083492,-0.7839754,0.030661996,0.51277673,-0.13484384,-0.18167952,-0.6194997,7.18889,6.521057,0,0,0,0,0,0,0,0,0,0,0,0,0,0,0,0,0,0,0,0,0
269,2.0071006,-0.7943859,0.027286202,0.10478047,-0.33511356,-0.11243733,-0.28550854,7.191284,6.28044,0,0,0,0,0,0,0,0,0,0,0,0,0,0,0,0,0,0,0,0,0
270,2.0042202,-0.7935052,0.018906912,-0.07844501,-0.3095472,-0.074087806,-0.16699557,7.0320697,6.2505126,0,0,0,0,0,0,0,0,0,0,0,0,0,0,0,0,0,0,0,0,0
271,1.9997703,-0.79320073,0.017844666,-0.01665967,-0.03044792,0.044156544,-0.3453636,7.278672,6.5246487,0,0,0,0,0,0,0,0,0,0,0,0,0,0,0,0,0,0,0,0,0
272,1.9927211,-0.7944933,0.01758132,0.028081436,0.021750037,0.14003034,-0.40641573,6.822577,6.4635963,0,0,0,0,0,0,0,0,0,0,0,0,0,0,0,0,0,0,0,0,0
273,1.9863397,-0.7927401,0.012781947,-0.083771326,-0.024056334,4.8070058E-4,0.13467385,6.8956003,6.8981442,0,0,0,0,0,0,0,0,0,0,0,0,0,0,0,0,0,0,0,0,0
274,1.9874848,-0.79369104,0.018150497,0.07069201,0.100579605,-0.09326257,-0.29747957,7.002142,6.7640686,0,0,0,0,0,0,0,0,0,0,0,0,0,0,0,0,0,0,0,0,0
275,1.9905224,-0.79431736,0.024499858,-0.0049417615,0.05903429,-0.089001514,-0.30945057,7.0560117,7.0334163,0,0,0,0,0,0,0,0,0,0,0,0,0,0,0,0,0,0,0,0,0
276,1.9913063,-0.79302955,0.02452924,-0.032638635,-0.11460381,-0.041064613,-0.3357868,6.878841,7.132776,0,0,0,0,0,0,0,0,0,0,0,0,0,0,0,0,0,0,0,0,0
277,1.9884336,-0.79388034,0.021084877,0.048323855,-0.06879424,-0.021892782,-0.019752163,6.9997478,6.4384575,0,0,0,0,0,0,0,0,0,0,0,0,0,0,0,0,0,0,0,0,0
278,1.9869511,-0.7938452,0.021765625,-0.04648468,0.034536406,-0.015501196,-0.074818805,7.038055,6.8095584,0,0,0,0,0,0,0,0,0,0,0,0,0,0,0,0,0,0,0,0,0
279,1.9878365,-0.7928455,0.024368228,0.038736477,0.06649434,-0.046393864,-0.13227965,6.8740525,7.1411557,0,0,0,0,0,0,0,0,0,0,0,0,0,0,0,0,0,0,0,0,0
280,1.9886508,-0.7972042,0.029449245,0.17189454,0.094191216,-0.061307564,-0.1933318,7.0440407,6.886173,0,0,0,0,0,0,0,0,0,0,0,0,0,0,0,0,0,0,0,0,0
281,1.987637,-0.79974824,0.031301543,0.07815126,0.012165853,-0.05065492,-0.24480712,6.9195423,6.6563296,0,0,0,0,0,0,0,0,0,0,0,0,0,0,0,0,0,0,0,0,0
282,1.9902318,-0.79922205,0.031853337,-0.04435415,-0.12205747,-0.08900444,-0.28191724,6.9734116,7.2129817,0,0,0,0,0,0,0,0,0,0,0,0,0,0,0,0,0,0,0,0,0
283,1.9926144,-0.7998678,0.031563435,0.08986917,-0.116731144,-0.061307564,-0.5979519,7.3145857,7.0980597,0,0,0,0,0,0,0,0,0,0,0,0,0,0,0,0,0,0,0,0,0
284,1.988307,-0.80631363,0.029283294,0.21024404,-0.03364052,0.069719955,-0.3573346,7.2295914,6.828712,0,0,0,0,0,0,0,0,0,0,0,0,0,0,0,0,0,0,0,0,0
285,1.9853519,-0.80974066,0.027467351,0.19213456,-0.020857345,0.013260944,-0.074818805,6.9003887,6.7042136,0,0,0,0,0,0,0,0,0,0,0,0,0,0,0,0,0,0,0,0,0
286,1.9851319,-0.81630576,0.029776681,0.23794092,0.036666933,-0.05278545,-0.56203884,7.4450693,6.89575,0,0,0,0,0,0,0,0,0,0,0,0,0,0,0,0,0,0,0,0,0
287,1.9814441,-0.82681775,0.032592088,0.3370105,0.08247331,0.07930734,-0.45429978,7.4570403,6.5521817,0,0,0,0,0,0,0,0,0,0,0,0,0,0,0,0,0,0,0,0,0
288,1.9737005,-0.8360817,0.029950775,0.1846777,-0.046423692,0.09422104,-0.219668,7.222409,6.3079734,0,0,0,0,0,0,0,0,0,0,0,0,0,0,0,0,0,0,0,0,0
289,1.9669349,-0.8388613,0.023354426,0.031279627,-0.12631853,0.047349405,0.060453594,7.1817074,6.130802,0,0,0,0,0,0,0,0,0,0,0,0,0,0,0,0,0,0,0,0,0
290,1.9652077,-0.83844274,0.02081222,-0.0038741005,-0.054945808,-0.012305402,0.02813187,7.0775595,6.4085298,0,0,0,0,0,0,0,0,0,0,0,0,0,0,0,0,0,0,0,0,0
291,1.9652044,-0.83941853,0.021991512,0.07282494,0.056906957,-0.06982968,-0.0700304,7.144597,6.3498716,0,0,0,0,0,0,0,0,0,0,0,0,0,0,0,0,0,0,0,0,0
292,1.9671319,-0.843456,0.029424476,0.110109195,0.122953355,-0.09752656,-0.29388827,7.3373303,6.257695,0,0,0,0,0,0,0,0,0,0,0,0,0,0,0,0,0,0,0,0,0
293,1.9694054,-0.84410787,0.035160247,-0.041158356,-0.01979208,-0.07089495,-0.6242881,7.545626,6.550985,0,0,0,0,0,0,0,0,0,0,0,0,0,0,0,0,0,0,0,0,0
294,1.9679425,-0.84165096,0.031224841,-0.052876264,-0.15401539,0.035631496,-0.4914099,7.4438725,6.7006226,0,0,0,0,0,0,0,0,0,0,0,0,0,0,0,0,0,0,0,0,0
295,1.9645576,-0.84191585,0.028162764,0.007843808,-0.08157742,0.03882729,-0.11911154,7.2655044,6.282834,0,0,0,0,0,0,0,0,0,0,0,0,0,0,0,0,0,0,0,0,0
296,1.9608469,-0.8424574,0.025844658,-0.051811,-0.022987874,-0.021892782,-0.09876082,7.379229,6.1762924,0,0,0,0,0,0,0,0,0,0,0,0,0,0,0,0,0,0,0,0,0
297,1.9623218,-0.83851707,0.02793378,-0.12744477,-0.038966842,-0.017631724,-0.9151836,7.7754693,6.9735613,0,0,0,0,0,0,0,0,0,0,0,0,0,0,0,0,0,0,0,0,0
298,1.9553958,-0.8372526,0.021266408,0.0057132794,-0.11140482,0.20713907,-0.42556936,7.474997,6.803573,0,0,0,0,0,0,0,0,0,0,0,0,0,0,0,0,0,0,0,0,0
299,1.9468865,-0.8350689,0.006110101,-0.09442158,-0.25415024,0.13683161,0.31304187,7.0871363,6.497115,0,0,0,0,0,0,0,0,0,0,0,0,0,0,0,0,0,0,0,0,0
300,1.9467427,-0.8329375,0.0013881491,-0.09548684,-0.19236492,-0.020827517,0.13706805,7.2176204,6.626402,0,0,0,0,0,0,0,0,0,0,0,0,0,0,0,0,0,0,0,0,0
301,1.9487138,-0.83185923,1.7910358E-4,0.024888039,-0.005943643,-0.05491598,-0.16819267,7.310994,6.613234,0,0,0,0,0,0,0,0,0,0,0,0,0,0,0,0,0,0,0,0,0
302,1.9487995,-0.83542407,0.0032213025,0.14313239,0.09845227,-5.8749336E-4,0.044891283,7.2415624,6.4504285,0,0,0,0,0,0,0,0,0,0,0,0,0,0,0,0,0,0,0,0,0
303,1.9508791,-0.83880574,0.0065295747,0.08454285,0.024949025,-0.059177037,-0.022146367,7.2678986,6.670695,0,0,0,0,0,0,0,0,0,0,0,0,0,0,0,0,0,0,0,0,0
304,1.9515288,-0.83995813,0.007029875,0.05151965,-0.08264268,-0.058111772,-0.044891283,7.287052,6.4803557,0,0,0,0,0,0,0,0,0,0,0,0,0,0,0,0,0,0,0,0,0
305,1.9560491,-0.84097695,0.004559963,0.016365923,-0.09649112,-0.1827477,0.7990648,7.1254435,6.6096425,0,1,0,0,0,0,0,0,0,0,0,0,0,0,0,0,0,0,0,0,0
306,1.9726906,-0.84100854,0.009499067,0.05578071,-0.13271011,-0.4107143,0.85652566,7.239168,6.947225,0,1,0,0,0,0,0,0,0,0,0,0,0,0,0,0,0,0,0,0,0
307,2.011662,-0.8397123,0.01968843,0.122892365,-0.22219232,-0.7494684,1.7100586,6.2455745,7.6391497,0,1,0,0,0,0,0,0,0,0,0,0,0,0,0,0,0,0,0,0,0
308,2.0999014,-0.8418824,0.05580764,0.37855583,-0.27545553,-1.6751832,2.867655,4.6450505,7.5816884,0,1,0,0,0,0,0,0,0,0,0,0,0,0,0,0,0,0,0,0,0
309,2.178251,-0.83840555,0.0843573,0.6310235,-0.17319016,-3.0174162,3.0627825,2.8230631,6.127211,0,1,0,0,0,0,0,0,0,0,0,0,0,0,0,0,0,0,0,0,0
310,2.3842306,-0.83180654,0.21873587,0.7140928,0.31999397,-4.752703,0.8265981,1.9815012,5.191078,0,1,0,0,0,0,0,0,0,0,0,0,0,0,0,0,0,0,0,0,0
311,2.6522894,-0.79405224,0.44617367,1.113567,1.3639531,-5.677353,-3.0699651,2.3262663,4.5051394,0,1,0,0,0,0,0,0,0,0,0,0,0,0,0,0,0,0,0,0,0
312,2.9118268,-0.70948744,0.67422795,0.98467,1.4023026,-5.9916058,-4.016872,1.3099276,4.6236525,0,1,0,0,0,0,0,0,0,0,0,0,0,0,0,0,0,0,0,0,0
313,3.1197228,-0.57236946,0.8375687,0.60543585,0.8366472,-6.327164,-6.535572,1.1040263,3.8443398,0,1,0,0,0,0,0,0,0,0,0,0,0,0,0,0,0,0,0,0,0
314,-3.0766976,-0.49948665,0.9102039,1.2712262,1.4726101,-5.8978624,-9.86471,3.1702223,4.2202296,0,1,0,0,0,0,0,0,0,0,0,0,0,0,0,0,0,0,0,0,0
315,-2.9254124,-0.37501428,1.0298487,1.4107758,0.8952368,-4.7207456,-11.923723,4.258387,3.339163,0,1,0,0,0,0,0,0,0,0,0,0,0,0,0,0,0,0,0,0,0
316,-2.8355362,-0.27513602,1.0639879,0.46162516,-0.63980925,-3.3689249,-12.055404,3.5987844,4.0873513,0,1,0,0,0,0,0,0,0,0,0,0,0,0,0,0,0,0,0,0,0
317,-2.7854736,-0.20223387,1.049117,0.34551132,-0.9721718,-2.2908773,-10.861895,1.6199768,4.0658035,0,1,0,0,0,0,0,0,0,0,0,0,0,0,0,0,0,0,0,0,0
318,-2.7663324,-0.16866997,1.0404447,0.2922481,-0.77509785,-2.124696,-8.410232,-1.0519524,3.1967082,0,1,0,0,0,0,0,0,0,0,0,0,0,0,0,0,0,0,0,0,0
319,-2.7157762,-0.10328798,1.0342692,0.30929235,0.1399643,-2.6434798,-10.26933,-0.069132574,5.0522146,0,1,0,0,0,0,0,0,0,0,0,0,0,0,0,0,0,0,0,0,0
320,-2.6434314,-0.039776936,1.0443774,0.45523357,-0.17002766,-2.2024603,-14.374188,2.6135705,5.9548287,0,1,0,0,0,0,0,0,0,0,0,0,0,0,0,0,0,0,0,0,0
321,-2.5700355,-0.008640352,1.0256631,0.21981013,-1.1106561,-0.83466077,-13.895349,2.5513213,4.2357917,0,1,0,0,0,0,0,0,0,0,0,0,0,0,0,0,0,0,0,0,0
322,-2.568727,-0.004215659,0.99029213,-0.19777353,-1.093612,0.037790786,-10.482413,0.39534256,3.9628527,0,1,0,0,0,0,0,0,0,0,0,0,0,0,0,0,0,0,0,0,0
323,-2.5647058,-0.0037336112,0.9798116,-0.13066188,-0.33833945,0.18905833,-10.723031,-0.06434417,6.2385416,0,1,0,0,0,0,0,0,0,0,0,0,0,0,0,0,0,0,0,0,0
324,-2.559905,-0.010920452,0.96796817,0.11434895,-0.566306,0.4170249,-10.991181,0.26126727,7.317129,0,1,0,0,0,0,0,0,0,0,0,0,0,0,0,0,0,0,0,0,0
325,-2.5501072,-0.033572853,0.94619143,0.5074315,-0.7335525,0.76110536,-11.897387,1.2620436,7.975535,0,1,0,0,0,0,0,0,0,0,0,0,0,0,0,0,0,0,0,0,0
326,-2.522384,-0.084186226,0.92181325,0.97295207,-0.9114517,1.5824242,-13.119627,3.1821933,6.28044,0,1,0,0,0,0,0,0,0,0,0,0,0,0,0,0,0,0,0,0,0
327,-2.5302248,-0.17028145,0.89629227,0.93459827,-0.6824265,2.7488947,-12.28405,3.4060512,6.184672,0,1,0,0,0,0,0,0,0,0,0,0,0,0,0,0,0,0,0,0,0
328,-2.5418777,-0.22904968,0.8901384,1.5971928,0.07071545,3.786462,-13.153146,4.500201,8.384943,0,1,0,0,0,0,0,0,0,0,0,0,0,0,0,0,0,0,0,0,0
329,-2.5823145,-0.38572964,0.8954931,2.4142506,0.3444884,5.1318913,-11.942877,4.138677,7.963564,0,1,0,0,0,0,0,0,0,0,0,0,0,0,0,0,0,0,0,0,0
330,-2.681925,-0.5637751,0.8404109,1.2658955,-1.2352988,5.9521446,-9.946113,3.3366194,4.2310033,0,1,0,0,0,0,0,0,0,0,0,0,0,0,0,0,0,0,0,0,0
331,-2.8516026,-0.7317871,0.7196527,1.1604344,-0.7900182,6.448558,-7.9661074,3.72448,2.7166708,0,1,0,0,0,0,0,0,0,0,0,0,0,0,0,0,0,0,0,0,0
332,-3.0834827,-0.8865935,0.5570628,1.2935925,0.4520801,6.8288574,-2.9921536,0.5210382,4.6116815,0,1,0,0,0,0,0,0,0,0,0,0,0,0,0,0,0,0,0,0,0
333,3.0628884,-0.937066,0.449244,0.9676215,0.13995764,5.950014,-1.1569979,0.41090485,3.9927802,0,1,0,0,0,0,0,0,0,0,0,0,0,0,0,0,0,0,0,0,0
334,2.7615921,-1.0195093,0.18532884,0.6501727,-0.086943686,5.3598576,0.46148238,2.286762,2.2545898,0,1,0,0,0,0,0,0,0,0,0,0,0,0,0,0,0,0,0,0,0
335,2.4522104,-1.0160773,-0.11478562,-0.31282637,-0.54607266,4.56304,3.5248635,1.872565,3.5654151,0,1,0,0,0,0,0,0,0,0,0,0,0,0,0,0,0,0,0,0,0
336,2.2548134,-0.9667306,-0.3329022,-0.48326865,-0.648338,3.258091,4.3999443,3.8968625,2.7585692,0,0,0,0,0,0,0,0,0,0,0,0,0,0,0,0,0,0,0,0,0
337,2.2029748,-0.93959683,-0.4065726,-0.37141588,0.3444884,2.2695255,5.46297,5.5356936,3.0626328,0,0,0,0,0,0,0,0,0,0,0,0,0,0,0,0,0,0,0,0,0
338,2.123433,-0.8981503,-0.45518667,-0.4193528,1.047563,1.3789645,4.561553,6.7974377,5.642385,0,0,0,0,0,0,0,0,0,0,0,0,0,0,0,0,0,0,0,0,0
339,2.0772727,-0.8699027,-0.45729458,-0.12214402,1.1136093,1.0306231,4.1557355,7.7922287,7.1770687,0,0,0,0,0,0,0,0,0,0,0,0,0,0,0,0,0,0,0,0,0
340,2.0467129,-0.85446584,-0.45951125,-0.13173139,0.6747204,0.5395362,5.131373,7.4079595,6.0865097,0,0,0,0,0,0,0,0,0,0,0,0,0,0,0,0,0,0,0,0,0
341,2.0488102,-0.8463509,-0.4391592,-0.21695255,0.701352,-0.07618665,4.341286,8.110658,6.216994,0,0,0,0,0,0,0,0,0,0,0,0,0,0,0,0,0,0,0,0,0
342,2.0531375,-0.846854,-0.41973853,0.31674492,0.91866595,-0.19975732,3.0723593,8.376414,7.4859204,0,0,0,0,0,0,0,0,0,0,0,0,0,0,0,0,0,0,0,0,0
343,2.049022,-0.8631373,-0.3980109,0.40303135,0.5234528,-0.22958472,3.5930982,8.016087,5.2317796,0,0,0,0,0,0,0,0,0,0,0,0,0,0,0,0,0,0,0,0,0
344,2.047463,-0.8790534,-0.37626326,0.2294039,0.76741487,-0.49804574,3.5942953,7.8700404,4.2561426,0,0,0,0,0,0,0,0,0,0,0,0,0,0,0,0,0,0,0,0,0
345,2.0691385,-0.8912669,-0.3257109,0.19744596,0.8718108,-0.54598266,1.5245079,8.340501,6.6539354,0,0,0,0,0,0,0,0,0,0,0,0,0,0,0,0,0,0,0,0,0
346,2.0705328,-0.90906334,-0.29848462,0.46695787,0.54370934,-0.24344754,1.8680758,8.054394,5.271284,0,0,0,0,0,0,0,0,0,0,0,0,0,0,0,0,0,0,0,0,0
347,2.0598865,-0.91700673,-0.29438403,0.10689849,0.3146775,-0.3020371,2.509722,7.6593504,3.941305,0,0,0,0,0,0,0,0,0,0,0,0,0,0,0,0,0,0,0,0,0
348,2.0783365,-0.91757655,-0.26460022,-0.28724936,0.19430263,-0.4575657,0.4902128,8.25431,5.7166057,0,0,0,0,0,0,0,0,0,0,0,0,0,0,0,0,0,0,0,0,0
349,2.0808632,-0.9224948,-0.24402708,0.3977157,0.52666515,0.04310859,1.0791864,8.153753,5.608866,0,0,0,0,0,0,0,0,0,0,0,0,0,0,0,0,0,0,0,0,0
350,2.073515,-0.93055165,-0.23557879,0.049374208,0.19004157,-0.09431052,1.5735891,7.759907,5.3119855,0,0,0,0,0,0,0,0,0,0,0,0,0,0,0,0,0,0,0,0,0
351,2.0800343,-0.92604667,-0.2318079,-0.2350514,-0.19345362,-0.19018432,1.4969746,7.817368,5.116858,0,0,0,0,0,0,0,0,0,0,0,0,0,0,0,0,0,0,0,0,0
352,2.07953,-0.9272751,-0.22679941,0.12713851,0.42333448,-0.19551064,1.6944963,7.988553,5.0881276,0,1,0,0,0,0,0,0,0,0,0,0,0,0,0,0,0,0,0,0,0
353,2.087609,-0.9382342,-0.20027722,0.43819574,0.68858534,-0.4149551,2.1266496,7.4809823,5.6699185,0,1,0,0,0,0,0,0,0,0,0,0,0,0,0,0,0,0,0,0,0
354,2.1166081,-0.9502867,-0.16423057,0.049374208,0.036643498,-0.78886294,1.8189948,8.056788,5.33473,0,1,0,0,0,0,0,0,0,0,0,0,0,0,0,0,0,0,0,0,0
355,2.1646404,-0.95038563,-0.12922926,-0.12532915,-0.062426094,-0.9454568,2.0057425,7.797017,5.3143797,0,1,0,0,0,0,0,0,0,0,0,0,0,0,0,0,0,0,0,0,0
356,2.2017074,-0.9501896,-0.11105034,0.0056983656,0.31680804,-1.3992594,3.232771,6.470629,4.734983,0,1,0,0,0,0,0,0,0,0,0,0,0,0,0,0,0,0,0,0,0
357,2.3161995,-0.9460809,-0.023608746,-0.1508955,0.36474493,-2.3377573,3.0268695,4.993407,5.7884316,0,1,0,0,0,0,0,0,0,0,0,0,0,0,0,0,0,0,0,0,0
358,2.4984393,-0.924292,0.10291512,-0.39910212,-0.10610194,-3.6810558,2.8568811,2.809895,4.3866262,0,1,0,0,0,0,0,0,0,0,0,0,0,0,0,0,0,0,0,0,0
359,2.7407253,-0.8654187,0.26654887,-0.9509091,0.18578053,-5.0009184,1.3700819,1.93242,2.7525837,0,1,0,0,0,0,0,0,0,0,0,0,0,0,0,0,0,0,0,0,0
360,2.9843614,-0.7398245,0.46583375,-1.4036827,0.74392235,-6.088505,-2.7096379,0.5042787,4.667945,0,1,0,0,0,0,0,0,0,0,0,0,0,0,0,0,0,0,0,0,0
361,3.0939605,-0.65656114,0.5552131,-0.8401578,1.5013254,-6.4815874,-4.992509,0.44202948,7.123199,0,1,0,0,0,0,0,0,0,0,0,0,0,0,0,0,0,0,0,0,0
362,-2.9849186,-0.50829834,0.72776634,0.4711827,1.6025255,-6.603028,-7.6165543,0.2971803,7.0932713,0,1,0,0,0,0,0,0,0,0,0,0,0,0,0,0,0,0,0,0,0
363,-2.8223383,-0.36834195,0.85000336,0.46053004,0.8174256,-5.8488207,-12.442068,4.649839,3.717447,0,1,0,0,0,0,0,0,0,0,0,0,0,0,0,0,0,0,0,0,0
364,-2.7173445,-0.24811807,0.92343783,0.17077814,0.9228868,-4.4320188,-12.765285,3.2228947,4.7816696,0,1,0,0,0,0,0,0,0,0,0,0,0,0,0,0,0,0,0,0,0
365,-2.6453915,-0.1533741,0.95941085,0.17397393,0.40516827,-3.3635583,-13.854647,3.3821092,6.4288807,0,1,0,0,0,0,0,0,0,0,0,0,0,0,0,0,0,0,0,0,0
366,-2.6270318,-0.1258267,0.96854764,0.3369594,-0.3415821,-1.9574093,-14.401722,3.4862568,5.118055,0,1,0,0,0,0,0,0,0,0,0,0,0,0,0,0,0,0,0,0,0
367,-2.6099916,-0.08950733,0.95771,-0.11151694,-0.63879085,-0.848469,-11.996746,1.1064205,3.7198412,0,1,0,0,0,0,0,0,0,0,0,0,0,0,0,0,0,0,0,0,0
368,-2.6020358,-0.06670998,0.9469286,-0.20952126,-0.33092946,-0.6183719,-10.484808,0.27922377,5.8590603,0,1,0,0,0,0,0,0,0,0,0,0,0,0,0,0,0,0,0,0,0
369,-2.5885644,-0.053291064,0.9420623,0.11751491,-0.23399039,-0.47349593,-10.610503,1.3350667,5.2174144,0,1,0,0,0,0,0,0,0,0,0,0,0,0,0,0,0,0,0,0,0
370,-2.5785105,-0.05183421,0.9416018,0.13349389,-0.14557344,-0.10917549,-10.324396,1.266832,4.914548,0,1,0,0,0,0,0,0,0,0,0,0,0,0,0,0,0,0,0,0,0
371,-2.5780525,-0.051705398,0.9394374,-0.064645305,-0.18711875,0.06978893,-8.515577,0.24450785,5.0857334,0,1,0,0,0,0,0,0,0,0,0,0,0,0,0,0,0,0,0,0,0
372,-2.5729587,-0.0512768,0.939238,0.019510584,0.08771946,-0.08573967,-8.759786,0.54498017,5.6914663,0,1,0,0,0,0,0,0,0,0,0,0,0,0,0,0,0,0,0,0,0
373,-2.5620425,-0.05403516,0.94471437,0.08023065,-0.01241539,0.08789843,-9.974843,1.8869302,5.2533274,0,1,0,0,0,0,0,0,0,0,0,0,0,0,0,0,0,0,0,0,0
374,-2.5652707,-0.06579637,0.93813443,-0.079559006,-0.30749363,0.53637475,-8.804078,1.0250176,5.2796636,0,1,0,0,0,0,0,0,0,0,0,0,0,0,0,0,0,0,0,0,0
375,-2.558956,-0.066470794,0.93998396,-0.079559006,-0.30749363,0.53637475,-8.804078,1.0250176,5.2796636,0,1,0,0,0,0,0,0,0,0,0,0,0,0,0,0,0,0,0,0,0
376,-2.5527673,-0.067131735,0.9417965,-0.079559006,-0.30749363,0.53637475,-8.804078,1.0250176,5.2796636,0,1,0,0,0,0,0,0,0,0,0,0,0,0,0,0,0,0,0,0,0
377,2.5787015,-0.6320962,-0.2642613,-0.0013393037,0.008541024,-0.065049574,1.8668787,5.7834935,7.895329,0,0,0,0,0,0,0,0,0,0,0,0,0,0,0,0,0,0,0,0,0
378,2.5780678,-0.6331732,-0.2635945,0.039140746,0.010671552,-0.048005342,1.9063832,5.767931,7.5421844,0,0,0,0,0,0,0,0,0,0,0,0,0,0,0,0,0,0,0,0,0
379,2.5787947,-0.63357794,-0.26052788,-0.062059376,0.13317697,-0.05972325,2.058415,5.7619457,7.540987,0,0,0,0,0,0,0,0,0,0,0,0,0,0,0,0,0,0,0,0,0
380,2.5814857,-0.63135624,-0.25234652,-0.08869099,0.16833068,-0.095942244,1.8836381,5.68174,7.7684364,0,0,0,0,0,0,0,0,0,0,0,0,0,0,0,0,0,0,0,0,0
381,2.5840218,-0.6298636,-0.24470529,-0.03009079,0.100170545,-0.068259746,1.6597804,5.6530094,7.8342767,0,0,0,0,0,0,0,0,0,0,0,0,0,0,0,0,0,0,0,0,0
382,2.5829222,-0.63012975,-0.24197434,0.014650315,0.06075576,0.0063087624,1.7579426,5.6793456,7.671471,0,0,0,0,0,0,0,0,0,0,0,0,0,0,0,0,0,0,0,0,0
383,2.5814772,-0.6305705,-0.24099125,-0.023699204,0.12254109,0.005243498,1.882441,5.7451863,7.396138,0,0,0,0,0,0,0,0,0,0,0,0,0,0,0,0,0,0,0,0,0
384,2.5818176,-0.62828666,-0.23552293,-0.11424668,0.12147583,-0.041628137,1.775899,5.765537,7.7720275,0,0,0,0,0,0,0,0,0,0,0,0,0,0,0,0,0,0,0,0,0
385,2.583045,-0.6256458,-0.23086263,-0.03648238,0.061821025,-0.011800733,1.690905,5.720047,7.8582187,0,0,0,0,0,0,0,0,0,0,0,0,0,0,0,0,0,0,0,0,0
386,2.5819788,-0.6254122,-0.22983281,0.018911373,0.030928355,0.02974458,1.8166006,5.694908,7.7061872,0,0,0,0,0,0,0,0,0,0,0,0,0,0,0,0,0,0,0,0,0
387,2.5804188,-0.62589055,-0.22982271,0.011454522,0.025602033,0.016961407,1.8561049,5.7595515,7.6642885,0,0,0,0,0,0,0,0,0,0,0,0,0,0,0,0,0,0,0,0,0
388,2.5799227,-0.625484,-0.22852248,-0.04926555,0.082061045,-0.023518642,1.751957,5.740398,7.715764,0,0,0,0,0,0,0,0,0,0,0,0,0,0,0,0,0,0,0,0,0
389,2.5810764,-0.62365985,-0.22384578,-0.04713502,0.10762739,-0.014996527,1.6849195,5.694908,7.857022,0,0,0,0,0,0,0,0,0,0,0,0,0,0,0,0,0,0,0,0,0
390,2.5818648,-0.6227706,-0.22065036,-0.026894998,0.06288629,-0.021388113,1.7663223,5.7140617,7.894132,0,0,0,0,0,0,0,0,0,0,0,0,0,0,0,0,0,0,0,0,0
391,2.5830297,-0.6232377,-0.21579386,0.047673512,0.1523685,-0.05441131,1.6454151,5.71047,8.037784,0,0,0,0,0,0,0,0,0,0,0,0,0,0,0,0,0,0,0,0,0
392,2.58392,-0.62643945,-0.20662305,0.07856618,0.21095805,-0.09489136,1.3676877,5.779902,7.8893437,0,0,0,0,0,0,0,0,0,0,0,0,0,0,0,0,0,0,0,0,0
393,2.5850291,-0.6274323,-0.20187089,0.01571558,0.11614951,-0.17372093,1.2802993,5.765537,7.9623666,0,0,0,0,0,0,0,0,0,0,0,0,0,0,0,0,0,0,0,0,0
394,2.5914583,-0.6291406,-0.19148043,-0.006654973,0.18645696,-0.25681156,0.96785605,5.3477488,7.405715,0,0,0,0,0,0,0,0,0,0,0,0,0,0,0,0,0,0,0,0,0
395,2.598562,-0.62502044,-0.16909766,-0.055657137,0.24185072,-0.27172527,-0.30107087,4.6630073,7.555352,0,0,0,0,0,0,0,0,0,0,0,0,0,0,0,0,0,0,0,0,0
396,2.5920458,-0.6180523,-0.16117075,-0.28362373,0.28659183,0.24705853,1.4203602,6.736386,8.449587,0,0,0,0,0,0,0,0,0,0,0,0,0,0,0,0,0,0,0,0,0
397,2.5843663,-0.6209388,-0.15023258,0.033825073,0.4218804,-0.097021885,-1.3976152,4.3769,6.530634,0,0,0,0,0,0,0,0,0,0,0,0,0,0,0,0,0,0,0,0,0
398,2.5715094,-0.60950905,-0.11344598,-0.28788903,1.9121786,0.86278695,0.8230068,6.112696,9.250447,0,0,0,0,0,0,0,0,0,0,0,0,0,0,0,0,0,0,0,0,0
399,2.5401158,-0.6102088,-0.078103475,0.26391792,1.0237482,0.32482842,0.87328506,6.3269773,7.9480014,0,0,0,0,0,0,0,0,0,0,0,0,0,0,0,0,0,0,0,0,0
400,2.5414152,-0.61920166,-0.059680674,0.11478091,0.28445464,-0.24508806,0.6015432,5.5596356,7.087286,0,0,0,0,0,0,0,0,0,0,0,0,0,0,0,0,0,0,0,0,0
401,2.542896,-0.61413413,-0.046912674,-0.19201525,0.2642146,-0.018186728,-0.24480712,5.4854155,8.119186,0,0,0,0,0,0,0,0,0,0,0,0,0,0,0,0,0,0,0,0,0
402,2.5387573,-0.61299545,-0.045942426,0.16165255,-0.15976064,0.25132516,0.3645172,5.8337717,8.06412,0,0,0,0,0,0,0,0,0,0,0,0,0,0,0,0,0,0,0,0,0
403,2.5250838,-0.62283826,-0.06942762,0.31505063,-0.7658961,0.31524104,1.0899603,5.9271455,7.218967,0,0,0,0,0,0,0,0,0,0,0,0,0,0,0,0,0,0,0,0,0
404,2.5155184,-0.6311056,-0.11217013,0.18721889,-1.4636443,0.11390606,0.88765025,5.906795,7.6140103,0,0,0,0,0,0,0,0,0,0,0,0,0,0,0,0,0,0,0,0,0
405,2.5154045,-0.6412061,-0.1822127,0.47057924,-2.0292997,0.23108515,2.2296004,5.8936267,7.8175173,0,0,0,0,0,0,0,0,0,0,0,0,0,0,0,0,0,0,0,0,0
406,2.5040226,-0.649984,-0.21400973,0.09986721,0.073532276,0.48142228,3.4793737,7.0332665,7.633164,0,0,0,0,0,0,0,0,0,0,0,0,0,0,0,0,0,0,0,0,0
407,2.504672,-0.6530747,-0.21353377,-0.09720671,-0.25776497,-0.43150932,1.3748703,5.5129485,6.655133,0,0,0,0,0,0,0,0,0,0,0,0,0,0,0,0,0,0,0,0,0
408,2.534776,-0.6394872,-0.20539151,-0.8365002,-0.26948288,-0.39209455,1.869273,5.979818,8.55134,0,0,0,0,0,0,0,0,0,0,0,0,0,0,0,0,0,0,0,0,0
409,2.5536408,-0.6174528,-0.19237165,-0.5041377,0.28445464,-0.28876388,1.3162124,5.5392847,8.406491,0,0,0,0,0,0,0,0,0,0,0,0,0,0,0,0,0,0,0,0,0
410,2.5624797,-0.6212768,-0.17632262,0.32996434,0.08205439,-0.27278492,1.0779893,5.990592,8.013842,0,0,0,0,0,0,0,0,0,0,0,0,0,0,0,0,0,0,0,0,0
411,2.5521946,-0.63657016,-0.18830128,0.43755603,-0.19917542,0.23747674,1.335366,5.3752823,6.980744,0,0,0,0,0,0,0,0,0,0,0,0,0,0,0,0,0,0,0,0,0
412,2.5443912,-0.6380344,-0.1929821,0.030625021,0.18112399,0.32269788,1.4730326,5.566818,7.432051,0,0,0,0,0,0,0,0,0,0,0,0,0,0,0,0,0,0,0,0,0
413,2.5288777,-0.633026,-0.18975267,-0.16751416,0.4016337,0.48035702,1.2611457,5.9295397,7.885752,0,0,0,0,0,0,0,0,0,0,0,0,0,0,0,0,0,0,0,0,0
414,2.5087292,-0.6253296,-0.19139235,-0.063131034,0.31532705,0.55813867,1.7256209,5.4471083,7.430854,0,0,0,0,0,0,0,0,0,0,0,0,0,0,0,0,0,0,0,0,0
415,2.4956536,-0.62337446,-0.20002566,0.037003823,-0.018100707,0.3408247,2.178125,5.7272296,7.403321,0,0,0,0,0,0,0,0,0,0,0,0,0,0,0,0,0,0,0,0,0
416,2.4940057,-0.6251835,-0.20345536,0.3011894,-0.113974504,-0.03840944,1.7340006,5.621885,7.8773727,0,0,0,0,0,0,0,0,0,0,0,0,0,0,0,0,0,0,0,0,0
417,2.4949293,-0.6365798,-0.20439622,0.15950923,0.08096889,-0.12576112,1.3904326,5.8636994,7.323115,0,0,0,0,0,0,0,0,0,0,0,0,0,0,0,0,0,0,0,0,0
418,2.4921327,-0.6343585,-0.20094343,-0.2378344,0.17151636,0.2992794,1.2791022,5.1909285,7.2596684,0,0,0,0,0,0,0,0,0,0,0,0,0,0,0,0,0,0,0,0,0
419,2.4803658,-0.6197471,-0.20246676,-0.38057983,0.15447213,0.39621845,1.9003977,5.5608325,7.621193,0,0,0,0,0,0,0,0,0,0,0,0,0,0,0,0,0,0,0,0,0
420,2.47004,-0.6103579,-0.20637475,-0.18350591,0.08096889,0.32378048,2.1877017,6.052841,7.5457754,0,0,0,0,0,0,0,0,0,0,0,0,0,0,0,0,0,0,0,0,0
421,2.467636,-0.60846114,-0.21013032,0.06363543,0.025575135,0.10433599,2.345719,6.1737485,8.617181,0,0,0,0,0,0,0,0,0,0,0,0,0,0,0,0,0,0,0,0,0
422,2.4653184,-0.6128645,-0.21379282,0.05830911,-0.11930083,-0.058649465,2.0560207,5.8648963,7.088483,0,0,0,0,0,0,0,0,0,0,0,0,0,0,0,0,0,0,0,0,0
423,2.4656138,-0.61461264,-0.21197021,0.0050458913,0.2301059,0.005266401,1.8513165,5.729624,7.3674073,0,0,0,0,0,0,0,0,0,0,0,0,0,0,0,0,0,0,0,0,0
424,2.462297,-0.6132162,-0.19946471,-0.026912041,0.5198578,0.13842446,1.8549078,5.68174,8.0784855,0,0,0,0,0,0,0,0,0,0,0,0,0,0,0,0,0,0,0,0,0
425,2.4593375,-0.61480075,-0.18558857,0.15098712,0.42611456,-0.00219045,1.5927427,5.7810993,8.362198,0,0,0,0,0,0,0,0,0,0,0,0,0,0,0,0,0,0,0,0,0
426,2.4544876,-0.62142354,-0.17933181,0.36084422,0.31639233,0.0063316654,1.1402385,5.955876,7.7959695,0,0,0,0,0,0,0,0,0,0,0,0,0,0,0,0,0,0,0,0,0
427,2.4484959,-0.6300887,-0.17156704,0.15098712,0.3078702,0.10220546,1.2336124,5.7152586,7.848642,0,0,0,0,0,0,0,0,0,0,0,0,0,0,0,0,0,0,0,0,0
428,2.439009,-0.6343857,-0.16522497,0.09665863,0.18749532,0.106466524,0.86610246,5.758354,7.681048,0,0,0,0,0,0,0,0,0,0,0,0,0,0,0,0,0,0,0,0,0
429,2.4364753,-0.63210046,-0.16281739,-0.14728692,0.011726697,-0.071432635,1.2156559,5.6518126,7.7576623,0,0,0,0,0,0,0,0,0,0,0,0,0,0,0,0,0,0,0,0,0
430,2.4443045,-0.62517154,-0.1630466,-0.26340073,-0.22582728,-0.23548336,1.2838906,5.4914007,7.591265,0,0,0,0,0,0,0,0,0,0,0,0,0,0,0,0,0,0,0,0,0
431,2.4478855,-0.6225419,-0.16230263,-0.25594175,-0.050055176,-0.3185769,1.4646529,6.1677628,7.2608657,0,0,0,0,0,0,0,0,0,0,0,0,0,0,0,0,0,0,0,0,0
432,2.4559777,-0.62464404,-0.15015914,0.3533895,0.39522535,-0.14493881,1.4143747,5.982212,8.112004,0,0,0,0,0,0,0,0,0,0,0,0,0,0,0,0,0,0,0,0,0
433,2.4526868,-0.64175993,-0.13749568,0.45245907,0.40800852,-0.018172346,1.3581109,6.1138935,7.7923784,0,0,0,0,0,0,0,0,0,0,0,0,0,0,0,0,0,0,0,0,0
434,2.4507685,-0.64697415,-0.12601449,0.1105092,0.36752847,-0.012846024,0.98341835,5.206491,7.7085814,0,0,0,0,0,0,0,0,0,0,0,0,0,0,0,0,0,0,0,0,0
435,2.4478014,-0.64860094,-0.11734045,0.0625723,0.55714554,-0.08421874,0.9163807,6.230012,7.439234,0,0,0,0,0,0,0,0,0,0,0,0,0,0,0,0,0,0,0,0,0
436,2.4444773,-0.65525174,-0.093964666,0.4545896,0.86607224,0.086223565,0.7128736,6.136638,8.115596,0,0,0,0,0,0,0,0,0,0,0,0,0,0,0,0,0,0,0,0,0
437,2.4353623,-0.66912997,-0.07343486,0.3203663,0.4953602,0.1629226,0.47465047,5.832575,8.041375,0,0,0,0,0,0,0,0,0,0,0,0,0,0,0,0,0,0,0,0,0
438,2.423941,-0.6723207,-0.06541312,0.06363756,0.32917896,0.10965939,0.0664391,6.154595,7.5326076,0,0,0,0,0,0,0,0,0,0,0,0,0,0,0,0,0,0,0,0,0
439,2.4127336,-0.67984694,-0.0529012,0.23088408,0.5230571,0.15972681,0.4914099,6.6094933,7.370999,0,0,0,0,0,0,0,0,0,0,0,0,0,0,0,0,0,0,0,0,0
440,2.4057338,-0.6818782,-0.04741487,0.22981882,0.6604762,0.37064916,0.5859809,5.8816557,8.250868,0,0,0,0,0,0,0,0,0,0,0,0,0,0,0,0,0,0,0,0,0
441,2.3896818,-0.6930972,-0.03378723,0.62503195,0.6892383,0.24068691,0.38845924,6.324583,8.214955,0,0,0,0,0,0,0,0,0,0,0,0,0,0,0,0,0,0,0,0,0
442,2.3841643,-0.7125814,-0.020070637,0.59946555,0.34941897,0.061722487,-0.23642741,5.2268414,8.337059,0,0,0,0,0,0,0,0,0,0,0,0,0,0,0,0,0,0,0,0,0
443,2.3942077,-0.7217829,-0.008379274,0.07642074,-0.024488831,-0.49967188,-0.3393781,5.302259,6.4623995,0,0,0,0,0,0,0,0,0,0,0,0,0,0,0,0,0,0,0,0,0
444,2.4079902,-0.7117469,0.002450192,-0.4072093,-0.28334808,-0.3942107,-1.0923545,8.959402,8.705767,0,0,0,0,0,0,0,0,0,0,0,0,0,0,0,0,0,0,0,0,0
445,2.401644,-0.7119438,-0.0033330342,0.22662303,-0.6146453,0.22577322,-1.4203602,7.579145,8.322694,0,0,0,0,0,0,0,0,0,0,0,0,0,0,0,0,0,0,0,0,0
446,2.3847525,-0.7268476,-0.032542992,0.40452218,-0.82982874,0.18209736,-0.18495208,6.438308,6.9987006,0,0,0,0,0,0,0,0,0,0,0,0,0,0,0,0,0,0,0,0,0
447,2.3668764,-0.73924446,-0.051863912,0.25858095,-0.03620674,0.21192478,-0.110731825,7.925107,6.679075,0,0,0,0,0,0,0,0,0,0,0,0,0,0,0,0,0,0,0,0,0
448,2.3625968,-0.7500861,-0.048477072,0.58773917,0.19707285,0.0063401875,-0.0053869537,5.067627,8.735694,0,0,0,0,0,0,0,0,0,0,0,0,0,0,0,0,0,0,0,0,0
449,2.3513184,-0.7758037,-0.057530418,0.5674991,-0.71798927,-0.2216264,-0.13347675,8.579921,4.9875712,0,0,0,0,0,0,0,0,0,0,0,0,0,0,0,0,0,0,0,0,0
450,2.3075619,-0.78841954,-0.071818404,0.4876043,0.1118517,0.46227336,0.84335756,4.390068,2.695123,0,0,0,0,0,0,0,0,0,0,0,0,0,0,0,0,0,0,0,0,0
451,2.3035598,-0.79456085,-0.04193027,-0.08018165,1.623462,-0.27169383,0.23762453,6.2467713,7.635558,0,0,0,0,0,0,0,0,0,0,0,0,0,0,0,0,0,0,0,0,0
452,2.3255804,-0.7921806,0.012438466,0.1605681,0.60719967,-0.27915066,-0.7823054,6.8656726,8.353819,0,0,0,0,0,0,0,0,0,0,0,0,0,0,0,0,0,0,0,0,0
453,2.3210366,-0.79787457,0.019786403,0.11156594,0.09800326,0.09262661,-0.7128736,7.478588,6.9101152,0,0,0,0,0,0,0,0,0,0,0,0,0,0,0,0,0,0,0,0,0
454,2.3159566,-0.79732376,0.016853305,0.1818734,-0.18961814,0.44735965,-0.6338649,7.3816233,8.784775,0,0,0,0,0,0,0,0,0,0,0,0,0,0,0,0,0,0,0,0,0
455,2.281301,-0.81030905,-0.012517463,0.4247537,-0.29294878,0.6891747,-0.4961983,7.970597,5.9656024,0,0,0,0,0,0,0,0,0,0,0,0,0,0,0,0,0,0,0,0,0
456,2.2281795,-0.8232913,-0.042661045,0.19572183,0.24500975,1.1269984,-0.8026561,7.4654202,5.2545247,0,0,0,0,0,0,0,0,0,0,0,0,0,0,0,0,0,0,0,0,0
457,2.1727805,-0.81752443,-0.069305874,-0.105748,0.7499451,1.2985059,0.99179804,6.894403,8.195802,0,0,0,0,0,0,0,0,0,0,0,0,0,0,0,0,0,0,0,0,0
458,2.1229148,-0.8172293,-0.09481402,0.20957027,0.44527948,1.1152805,0.635062,6.560412,7.8175173,0,0,0,0,0,0,0,0,0,0,0,0,0,0,0,0,0,0,0,0,0
459,2.1023011,-0.8179281,-0.11161636,0.2383324,0.036217924,0.94483817,1.1127052,6.554426,7.290793,0,0,0,0,0,0,0,0,0,0,0,0,0,0,0,0,0,0,0,0,0
460,2.0559876,-0.82332194,-0.14828329,0.4279495,-0.038350586,0.7040884,1.3461399,7.1398087,6.1595325,0,0,0,0,0,0,0,0,0,0,0,0,0,0,0,0,0,0,0,0,0
461,2.0052586,-0.8439275,-0.1644846,0.6122402,0.77338094,0.674261,2.2296004,8.123826,5.096507,0,0,0,0,0,0,0,0,0,0,0,0,0,0,0,0,0,0,0,0,0
462,1.9772145,-0.854175,-0.15809558,0.38001257,1.2761858,0.54962504,2.6126726,6.69329,6.163124,0,0,0,0,0,0,0,0,0,0,0,0,0,0,0,0,0,0,0,0,0
463,1.9629884,-0.854482,-0.13950858,0.049780607,0.999217,0.28863525,1.8848352,6.4514756,6.267272,0,0,0,0,0,0,0,0,0,0,0,0,0,0,0,0,0,0,0,0,0
464,1.9656163,-0.8504388,-0.1319229,-0.06847839,0.6732226,0.20130382,1.8297687,6.0995283,7.1279874,0,0,0,0,0,0,0,0,0,0,0,0,0,0,0,0,0,0,0,0,0
465,1.9658095,-0.8444211,-0.12091994,-0.20057118,0.15656938,-0.102296546,1.359308,7.1589622,6.839486,0,0,0,0,0,0,0,0,0,0,0,0,0,0,0,0,0,0,0,0,0
466,1.9589741,-0.84218633,-0.115186535,-0.15156902,0.30996746,0.08412473,1.0049661,7.5839334,5.307197,0,0,0,0,0,0,0,0,0,0,0,0,0,0,0,0,0,0,0,0,0
467,1.9525518,-0.8303616,-0.10518776,-0.2868576,0.65724367,0.3035692,0.8038532,7.1637506,7.489512,0,0,0,0,0,0,0,0,0,0,0,0,0,0,0,0,0,0,0,0,0
468,1.9514377,-0.8252369,-0.101199076,0.001829059,0.45377815,0.22367437,1.1869255,6.3078237,7.5709147,0,0,0,0,0,0,0,0,0,0,0,0,0,0,0,0,0,0,0,0,0
469,1.9478143,-0.8241059,-0.09633446,-0.051434163,0.22687683,-0.09057864,1.3808558,6.836942,6.3019876,0,0,0,0,0,0,0,0,0,0,0,0,0,0,0,0,0,0,0,0,0
470,1.9579597,-0.8236755,-0.07339353,0.115812354,0.7115721,-0.21201877,0.02813187,7.8101854,7.8055463,0,0,0,0,0,0,0,0,0,0,0,0,0,0,0,0,0,0,0,0,0
471,1.9598569,-0.83575535,-0.04748052,0.4918507,0.49851924,0.10649528,-0.516549,7.9239097,7.8677955,0,0,0,0,0,0,0,0,0,0,0,0,0,0,0,0,0,0,0,0,0
472,1.9451792,-0.84423786,-0.058700573,0.12859553,-0.19816369,0.20449962,0.694917,7.108684,5.948843,0,0,0,0,0,0,0,0,0,0,0,0,0,0,0,0,0,0,0,0,0
473,1.9386274,-0.8441681,-0.06593565,-0.07913104,-0.10335515,-0.028793298,0.8218097,7.227197,5.8590603,0,0,0,0,0,0,0,0,0,0,0,0,0,0,0,0,0,0,0,0,0
474,1.9404858,-0.84496105,-0.060040087,0.19144613,0.30890217,-0.12360183,0.43394905,7.3840175,6.410924,0,0,0,0,0,0,0,0,0,0,0,0,0,0,0,0,0,0,0,0,0
475,1.9416996,-0.856221,-0.042518973,0.39384636,0.4431255,-0.12360183,0.27593175,7.474997,6.0853124,0,0,0,0,0,0,0,0,0,0,0,0,0,0,0,0,0,0,0,0,0
476,1.9432548,-0.86683714,-0.025618767,0.16694504,0.24285579,-0.115079716,0.011372458,7.3995795,5.984756,0,0,0,0,0,0,0,0,0,0,0,0,0,0,0,0,0,0,0,0,0
477,1.947275,-0.86395454,-0.023402931,-0.131329,-0.1438352,-0.0916439,0.10594343,7.2774754,6.5078893,0,0,0,0,0,0,0,0,0,0,0,0,0,0,0,0,0,0,0,0,0
478,1.948966,-0.861274,-0.027032062,-0.09511001,-0.3387786,-0.12040604,0.40880993,7.2080436,6.469582,0,0,0,0,0,0,0,0,0,0,0,0,0,0,0,0,0,0,0,0,0
479,1.9497125,-0.86091685,-0.033092547,-0.016280437,-0.14276993,-0.17899558,0.6039374,7.355287,5.5358434,0,0,0,0,0,0,0,0,0,0,0,0,0,0,0,0,0,0,0,0,0
480,1.9583327,-0.8607048,-0.022835871,-0.0045625274,0.17893992,-0.20562719,0.1933318,7.403171,6.353463,0,0,0,0,0,0,0,0,0,0,0,0,0,0,0,0,0,0,0,0,0
481,1.9674278,-0.8627349,-0.010270362,0.1285934,0.1118248,-0.13744761,-0.0700304,7.4139447,6.789208,0,0,0,0,0,0,0,0,0,0,0,0,0,0,0,0,0,0,0,0,0
482,1.9707912,-0.86681,-0.009288469,0.08598282,-0.19390608,-0.110815994,-0.054468088,7.569568,6.173898,0,0,0,0,0,0,0,0,0,0,0,0,0,0,0,0,0,0,0,0,0
483,1.9655744,-0.869066,-0.0117821945,0.0071532507,-0.14703445,-0.023464313,0.074818805,7.8856025,5.560982,0,0,0,0,0,0,0,0,0,0,0,0,0,0,0,0,0,0,0,0,0
484,1.9635462,-0.8683517,-0.012585785,-0.034392063,0.12354271,0.045777876,-0.038905777,7.6856866,6.529437,0,0,0,0,0,0,0,0,0,0,0,0,0,0,0,0,0,0,0,0,0
485,1.9609443,-0.8680235,-0.011610512,0.04337224,-0.0064195497,0.08732319,-0.17537527,7.561188,6.862231,0,0,0,0,0,0,0,0,0,0,0,0,0,0,0,0,0,0,0,0,0
486,1.9550004,-0.8679396,-0.020891804,-0.031196268,-0.17899239,0.09051898,0.2088941,7.4570403,6.2612863,0,0,0,0,0,0,0,0,0,0,0,0,0,0,0,0,0,0,0,0,0
487,1.9530668,-0.86710006,-0.024880948,-0.023739418,-0.05009539,0.023407321,0.30945057,7.346907,6.209811,0,0,0,0,0,0,0,0,0,0,0,0,0,0,0,0,0,0,0,0,0
488,1.953358,-0.86726654,-0.023140928,0.06467753,0.09265004,0.009558884,-0.024540568,7.4295073,6.505495,0,0,0,0,0,0,0,0,0,0,0,0,0,0,0,0,0,0,0,0,0
489,1.9514416,-0.8679378,-0.02344434,-0.051436294,-0.067139626,0.050038934,0.0700304,7.3181767,6.2157965,0,0,0,0,0,0,0,0,0,0,0,0,0,0,0,0,0,0,0,0,0
490,1.949377,-0.863116,-0.030175231,-0.15476695,-0.15236078,0.05429999,0.26635495,7.1613564,6.3115644,0,0,0,0,0,0,0,0,0,0,0,0,0,0,0,0,0,0,0,0,0
491,1.9519993,-0.8584207,-0.03358431,-0.08232896,-0.095901765,-0.017072726,0.13108255,7.167342,6.7269588,0,0,0,0,0,0,0,0,0,0,0,0,0,0,0,0,0,0,0,0,0
492,1.9534992,-0.85853165,-0.033429526,0.056155413,-0.094836496,-0.059683304,-0.04249708,7.3624697,6.4121213,0,0,0,0,0,0,0,0,0,0,0,0,0,0,0,0,0,0,0,0,0
493,1.9556135,-0.86075217,-0.03272088,0.02632801,-0.03518169,-0.07353174,-0.049679685,7.544429,6.228965,0,0,0,0,0,0,0,0,0,0,0,0,0,0,0,0,0,0,0,0,0
494,1.9577398,-0.8620448,-0.028471468,0.017805895,0.037256293,-0.067140155,-0.23642741,7.594707,6.171504,0,0,0,0,0,0,0,0,0,0,0,0,0,0,0,0,0,0,0,0,0
495,1.9582046,-0.86216563,-0.022932025,-0.031196268,0.10969427,-0.012811669,-0.28311434,7.5540056,6.2014313,0,0,0,0,0,0,0,0,0,0,0,0,0,0,0,0,0,0,0,0,0
496,1.9591211,-0.86039776,-0.017327882,-0.039718386,0.12460797,-0.018137991,-0.19931729,7.3636665,6.4863415,0,0,0,0,0,0,0,0,0,0,0,0,0,0,0,0,0,0,0,0,0
497,1.9595938,-0.8604908,-0.0137619795,0.02632801,0.1267385,-0.018137991,-0.16819267,7.4534492,6.3738136,0,0,0,0,0,0,0,0,0,0,0,0,0,0,0,0,0,0,0,0,0
498,1.9570838,-0.8623895,-0.011504625,0.028441494,-0.010707239,0.05645369,0.12749124,7.452252,6.0398226,0,0,0,0,0,0,0,0,0,0,0,0,0,0,0,0,0,0,0,0,0
499,1.9477916,-0.8618768,-0.02116182,-0.13454396,-0.20032431,0.097999,0.57999533,7.50253,5.5897126,0,0,0,0,0,0,0,0,0,0,0,0,0,0,0,0,0,0,0,0,0
500,1.9422107,-0.85574347,-0.031813536,-0.20804721,-0.11616842,0.078824244,0.83018947,7.424719,6.0721445,0,0,0,0,0,0,0,0,0,0,0,0,0,0,0,0,0,0,0,0,0
501,1.9427067,-0.85101944,-0.034210883,-0.1004555,0.038294926,0.011712583,0.7344214,7.3026147,6.613234,0,0,0,0,0,0,0,0,0,0,0,0,0,0,0,0,0,0,0,0,0
502,1.9450915,-0.8495414,-0.03396341,-0.053583864,0.015924372,-0.03409379,0.55246204,7.4354925,6.8478656,0,0,0,0,0,0,0,0,0,0,0,0,0,0,0,0,0,0,0,0,0
503,1.9487929,-0.8469333,-0.034205515,-0.09086812,-0.10977683,-0.053268548,0.41599256,7.463026,6.890961,0,0,0,0,0,0,0,0,0,0,0,0,0,0,0,0,0,0,0,0,0
504,1.9554328,-0.8426307,-0.034881227,-0.08873759,-0.08740628,-0.09694439,0.20410569,7.394791,7.161506,0,0,0,0,0,0,0,0,0,0,0,0,0,0,0,0,0,0,0,0,0
505,1.9645795,-0.841999,-0.03002026,0.044420462,-0.023490412,-0.14275075,-0.16220717,7.3840175,7.3482537,0,0,0,0,0,0,0,0,0,0,0,0,0,0,0,0,0,0,0,0,0
506,1.9687877,-0.8436378,-0.026584575,0.15627323,-0.07994942,-0.10440124,-0.3417723,7.5216837,7.029825,0,0,0,0,0,0,0,0,0,0,0,0,0,0,0,0,0,0,0,0,0
507,1.9728208,-0.84826165,-0.026837325,0.12857635,-0.20458536,-0.069247514,-0.22804771,7.4319015,6.6862574,0,0,0,0,0,0,0,0,0,0,0,0,0,0,0,0,0,0,0,0,0
508,1.9747239,-0.8529583,-0.02970621,0.12325003,-0.18328008,-0.08309595,-0.17298107,7.4175363,6.245724,0,0,0,0,0,0,0,0,0,0,0,0,0,0,0,0,0,0,0,0,0
509,1.9767998,-0.85752887,-0.028642822,0.12857635,-0.07142731,-0.06605172,-0.3657143,7.4594345,6.1882634,0,0,0,0,0,0,0,0,0,0,0,0,0,0,0,0,0,0,0,0,0
510,1.9745861,-0.86255413,-0.028237771,0.116858445,-0.05651361,-0.004266384,-0.24001873,7.4319015,5.924901,0,0,0,0,0,0,0,0,0,0,0,0,0,0,0,0,0,0,0,0,0
511,1.9714322,-0.8644878,-0.028987266,0.05400784,-0.060774665,-5.326322E-6,-0.006584055,7.3133883,5.842301,0,0,0,0,0,0,0,0,0,0,0,0,0,0,0,0,0,0,0,0,0
512,1.9697261,-0.866295,-0.028541755,0.015658323,0.02018543,-0.018114822,-0.110731825,7.4462667,6.030246,0,0,0,0,0,0,0,0,0,0,0,0,0,0,0,0,0,0,0,0,0
513,1.966866,-0.8677066,-0.027236922,0.03696361,0.009532785,0.06391054,-0.14784196,7.5719624,6.151153,0,0,0,0,0,0,0,0,0,0,0,0,0,0,0,0,0,0,0,0,0
514,1.9627252,-0.8682308,-0.03001236,-0.052518602,-0.067166254,0.11930429,0.29747957,7.406762,6.030246,0,0,0,0,0,0,0,0,0,0,0,0,0,0,0,0,0,0,0,0,0
515,1.9549137,-0.86373484,-0.038749196,-0.10473786,-0.017132381,0.06926563,0.43873745,7.3816233,6.195446,0,0,0,0,0,0,0,0,0,0,0,0,0,0,0,0,0,0,0,0,0
516,1.9539483,-0.8623119,-0.039769355,-0.06532308,0.025478195,0.053286657,0.39205053,7.452252,6.413318,0,0,0,0,0,0,0,0,0,0,0,0,0,0,0,0,0,0,0,0,0
517,1.9510617,-0.8603146,-0.041854024,-0.08236731,0.030804519,0.050090864,0.5081693,7.3696523,6.209811,0,0,0,0,0,0,0,0,0,0,0,0,0,0,0,0,0,0,0,0,0
518,1.9517324,-0.8556322,-0.041380372,-0.14308739,0.05317507,0.013871874,0.31304187,7.3780317,6.7401266,0,0,0,0,0,0,0,0,0,0,0,0,0,0,0,0,0,0,0,0,0
519,1.9520816,-0.8522255,-0.03955585,-0.0706494,0.06489298,0.01067608,0.22445641,7.4678144,6.601263,0,0,0,0,0,0,0,0,0,0,0,0,0,0,0,0,0,0,0,0,0
520,1.9531722,-0.8499285,-0.036743216,-0.07277993,0.07980668,-0.010629209,0.25318682,7.3876085,6.5473933,0,0,0,0,0,0,0,0,0,0,0,0,0,0,0,0,0,0,0,0,0
521,1.9554977,-0.84904426,-0.034579195,0.02096334,0.09685091,-0.029803969,0.18495208,7.2894464,6.7257614,0,0,0,0,0,0,0,0,0,0,0,0,0,0,0,0,0,0,0,0,0
522,1.9586829,-0.8516078,-0.026774537,0.10618449,0.1543752,-0.097980894,-0.17657238,7.6114664,6.625205,0,0,0,0,0,0,0,0,0,0,0,0,0,0,0,0,0,0,0,0,0
523,1.959742,-0.85566294,-0.019792214,0.08061814,0.037196103,0.0064150225,-0.31543607,7.776666,6.4264865,0,0,0,0,0,0,0,0,0,0,0,0,0,0,0,0,0,0,0,0,0
524,1.9564078,-0.8540399,-0.025031071,-0.07171467,-0.10661459,0.07246142,0.11791443,7.4091563,6.5162687,0,0,0,0,0,0,0,0,0,0,0,0,0,0,0,0,0,0,0,0,0
525,1.9552164,-0.85351336,-0.027013605,0.101923436,0.011629758,0.024524517,0.1945289,7.3576813,6.470779,0,0,0,0,0,0,0,0,0,0,0,0,0,0,0,0,0,0,0,0,0
526,1.9527442,-0.8584836,-0.025639992,0.115771875,0.10004671,0.0021539647,0.15622166,7.4929533,6.1822777,0,0,0,0,0,0,0,0,0,0,0,0,0,0,0,0,0,0,0,0,0
527,1.9504918,-0.8616389,-0.022614947,0.044399157,0.10111197,0.0064150225,0.17298107,7.5300636,6.1296053,0,0,0,0,0,0,0,0,0,0,0,0,0,0,0,0,0,0,0,0,0
528,1.9494098,-0.8625469,-0.019524833,0.02842019,0.119221464,0.022393988,0.24480712,7.404368,6.3714194,0,0,0,0,0,0,0,0,0,0,0,0,0,0,0,0,0,0,0,0,0
529,1.950477,-0.8624024,-0.017896999,0.0028538434,0.039326634,-0.023412382,0.3633201,7.2690954,6.517466,0,0,0,0,0,0,0,0,0,0,0,0,0,0,0,0,0,0,0,0,0
530,1.9529395,-0.86147684,-0.016314453,-0.02910409,-0.035241876,-0.067088224,-0.019752163,7.454646,6.717382,0,0,0,0,0,0,0,0,0,0,0,0,0,0,0,0,0,0,0,0,0
531,1.9552345,-0.8616728,-0.015331588,0.065691665,0.009479255,-0.01913428,0.12509704,7.379229,6.407333,0,0,0,0,0,0,0,0,0,0,0,0,0,0,0,0,0,0,0,0,0
532,1.9550428,-0.86462855,-0.0134483725,0.063561134,0.044632982,-0.039374303,0.23403321,7.310994,6.1056633,0,0,0,0,0,0,0,0,0,0,0,0,0,0,0,0,0,0,0,0,0
533,1.9573699,-0.8654493,-0.010159844,-0.035508458,-0.009695504,-0.16294497,0.4961983,7.179313,5.616049,0,0,0,0,0,0,0,0,0,0,0,0,0,0,0,0,0,0,0,0,0
534,1.9704263,-0.858923,0.0011532202,-0.20062445,0.06593827,-0.2492314,-0.3441665,7.686884,6.9101152,0,0,0,0,0,0,0,0,0,0,0,0,0,0,0,0,0,0,0,0,0
535,1.9758899,-0.85875285,0.0077141365,0.15517387,0.10322253,-0.1054207,-0.4902128,7.5420346,7.087286,0,0,0,0,0,0,0,0,0,0,0,0,0,0,0,0,0,0,0,0,0
536,1.9780303,-0.86502206,0.011987563,0.08806221,-0.0906556,-0.07559329,-0.18734628,7.5156984,6.047005,0,0,0,0,0,0,0,0,0,0,0,0,0,0,0,0,0,0,0,0,0
537,1.9788984,-0.8665243,0.011863028,0.013493705,-0.0576324,-0.053222742,-0.18016368,7.538443,5.90455,0,0,0,0,0,0,0,0,0,0,0,0,0,0,0,0,0,0,0,0,0
538,1.9792619,-0.8676105,0.014276605,0.030537935,0.0680688,-0.025525866,-0.12868834,7.3900027,6.0960865,0,0,0,0,0,0,0,0,0,0,0,0,0,0,0,0,0,0,0,0,0
539,1.9787914,-0.86880124,0.01697104,0.06782219,0.10428779,-0.026591131,-0.24839842,7.4690113,6.118831,0,0,0,0,0,0,0,0,0,0,0,0,0,0,0,0,0,0,0,0,0
540,1.9777914,-0.8714114,0.020870512,0.020950556,0.055285625,-0.0020900487,-0.14185645,7.452252,5.9799676,0,0,0,0,0,0,0,0,0,0,0,0,0,0,0,0,0,0,0,0,0
541,1.976275,-0.8706697,0.020625897,-0.07172745,-0.045914494,0.0021710088,-0.05566519,7.439084,6.056582,0,0,0,0,0,0,0,0,0,0,0,0,0,0,0,0,0,0,0,0,0
542,1.9754598,-0.8683509,0.018992962,-0.07598851,-0.01821762,-0.011677429,0.006584055,7.448661,6.1595325,0,0,0,0,0,0,0,0,0,0,0,0,0,0,0,0,0,0,0,0,0
543,1.9760386,-0.8661381,0.019119937,-0.056813747,0.01054452,-0.0095469,0.0676362,7.3720465,6.3319154,0,0,0,0,0,0,0,0,0,0,0,0,0,0,0,0,0,0,0,0,0
544,1.9774511,-0.86495686,0.018791208,-0.066401124,-0.015021826,-0.05535327,0.11312603,7.370849,6.419304,0,0,0,0,0,0,0,0,0,0,0,0,0,0,0,0,0,0,0,0,0
545,1.9809006,-0.8630783,0.020641966,-0.056813747,0.013740313,-0.09583332,0.030526072,7.474997,6.3019876,0,0,0,0,0,0,0,0,0,0,0,0,0,0,0,0,0,0,0,0,0
546,1.9870692,-0.860054,0.02652014,-0.116468556,0.040371925,-0.12566072,-0.3513491,7.579145,6.628796,0,0,0,0,0,0,0,0,0,0,0,0,0,0,0,0,0,0,0,0,0
547,1.9937161,-0.8556485,0.032573197,-0.06533586,0.049959302,-0.056418534,-0.6003461,7.6078753,7.112425,0,0,0,0,0,0,0,0,0,0,0,0,0,0,0,0,0,0,0,0,0
548,1.9956737,-0.85575056,0.03295931,0.024161262,-0.028846828,-0.005305816,-0.31663316,7.3516955,6.6778774,0,0,0,0,0,0,0,0,0,0,0,0,0,0,0,0,0,0,0,0,0
549,1.9969774,-0.85546327,0.032888338,0.0039212382,-0.035238415,-0.02341531,-0.40162733,7.3516955,6.503101,0,0,0,0,0,0,0,0,0,0,0,0,0,0,0,0,0,0,0,0,0
550,1.9977502,-0.85683805,0.034502137,0.07209816,0.03080798,-0.01595846,-0.40282443,7.3504987,6.267272,0,0,0,0,0,0,0,0,0,0,0,0,0,0,0,0,0,0,0,0,0
551,1.9971423,-0.8587544,0.035890173,0.006051767,-0.022455242,0.011738415,-0.43993455,7.4654202,6.1786866,0,0,0,0,0,0,0,0,0,0,0,0,0,0,0,0,0,0,0,0,0
552,1.9944822,-0.8570804,0.032821838,-0.0876915,-0.060804762,0.04902267,-0.3405752,7.4223247,6.211008,0,0,0,0,0,0,0,0,0,0,0,0,0,0,0,0,0,0,0,0,0
553,1.9937017,-0.8551109,0.031907547,-0.025906166,0.04785221,0.027717382,-0.24720132,7.0679827,6.372617,0,0,0,0,0,0,0,0,0,0,0,0,0,0,0,0,0,0,0,0,0
554,1.9948523,-0.8553745,0.03378237,0.035879172,0.070222765,-0.028741634,-0.26635495,7.164948,6.3379006,0,0,0,0,0,0,0,0,0,0,0,0,0,0,0,0,0,0,0,0,0
555,1.9949696,-0.85641,0.035927456,-0.054668304,-0.061870024,-0.038329013,-0.25198972,7.4953475,5.9799676,0,0,0,0,0,0,0,0,0,0,0,0,0,0,0,0,0,0,0,0,0
556,1.9929284,-0.85430175,0.03367893,-0.11325785,-0.029912092,0.004281564,-0.073621705,7.50253,5.8973675,0,0,0,0,0,0,0,0,0,0,0,0,0,0,0,0,0,0,0,0,0
557,1.9933354,-0.85075253,0.03571998,-0.079169385,0.12348598,0.0053468286,-0.22924481,7.406762,6.661118,0,0,0,0,0,0,0,0,0,0,0,0,0,0,0,0,0,0,0,0,0
558,1.9942181,-0.85028243,0.037833408,0.0071170316,0.0659617,0.006412093,-0.26156655,7.424719,6.7018194,0,0,0,0,0,0,0,0,0,0,0,0,0,0,0,0,0,0,0,0,0
559,1.9928336,-0.84989715,0.03618194,-0.08343045,-0.09702375,0.03943529,-0.08798691,7.4295073,6.3714194,0,0,0,0,0,0,0,0,0,0,0,0,0,0,0,0,0,0,0,0,0
560,1.992104,-0.8459931,0.031391423,-0.094083086,-0.046956323,0.027717382,-0.12749124,7.1709332,6.6766806,0,0,0,0,0,0,0,0,0,0,0,0,0,0,0,0,0,0,0,0,0
561,1.993506,-0.8441323,0.030226372,0.0049865027,-0.020324713,0.0074773575,-0.107140526,7.1350203,6.795193,0,0,0,0,0,0,0,0,0,0,0,0,0,0,0,0,0,0,0,0,0
562,1.9940964,-0.84421134,0.026534053,-0.013122993,-0.122590095,-0.017023725,0.06404489,7.215226,6.360646,0,0,0,0,0,0,0,0,0,0,0,0,0,0,0,0,0,0,0,0,0
563,1.993729,-0.8440136,0.024089884,-0.059994627,-0.13430801,-0.03513322,-0.002992752,7.3696523,6.258892,0,0,0,0,0,0,0,0,0,0,0,0,0,0,0,0,0,0,0,0,0
564,1.9949704,-0.8421349,0.021162825,-0.06319042,-0.07784899,-0.034067955,0.01616086,7.4175363,6.4600053,0,0,0,0,0,0,0,0,0,0,0,0,0,0,0,0,0,0,0,0,0
565,1.9973015,-0.84041345,0.020630756,-0.041932005,-0.059813265,-0.04146169,-0.15861586,7.525275,6.7509007,0,0,0,0,0,0,0,0,0,0,0,0,0,0,0,0,0,0,0,0,0
566,2.000133,-0.8391044,0.021253444,-0.03127936,-0.03957324,-0.04146169,-0.38726214,7.6006927,6.9220862,0,0,0,0,0,0,0,0,0,0,0,0,0,0,0,0,0,0,0,0,0
567,2.002608,-0.8384214,0.023770899,0.012396482,0.030734211,-0.009503757,-0.6051345,7.5097127,7.203405,0,0,0,0,0,0,0,0,0,0,0,0,0,0,0,0,0,0,0,0,0
568,2.0041068,-0.8383987,0.024792504,0.049680736,-0.022529012,0.010736267,-0.54767364,7.343316,7.063344,0,0,0,0,0,0,0,0,0,0,0,0,0,0,0,0,0,0,0,0,0
569,2.004079,-0.83987653,0.023447013,0.06246391,-0.081118554,0.01606259,-0.44951138,7.266701,6.663512,0,0,0,0,0,0,0,0,0,0,0,0,0,0,0,0,0,0,0,0,0
570,2.0024035,-0.84269106,0.021032337,0.07418182,-0.0768575,0.0064752097,-0.3597288,7.237971,6.232556,0,0,0,0,0,0,0,0,0,0,0,0,0,0,0,0,0,0,0,0,0
571,2.0000107,-0.8457983,0.019632267,0.06352917,-0.055552207,-0.008438492,-0.27353755,7.272687,5.923704,0,0,0,0,0,0,0,0,0,0,0,0,0,0,0,0,0,0,0,0,0
572,1.9984105,-0.848169,0.021727294,0.04328915,0.039256327,-0.0201564,-0.3800795,7.3660607,5.971588,0,0,0,0,0,0,0,0,0,0,0,0,0,0,0,0,0,0,0,0,0
573,1.9963206,-0.84923804,0.024474291,0.0038743666,0.1148901,0.012866796,-0.43873745,7.4462667,6.116437,0,0,0,0,0,0,0,0,0,0,0,0,0,0,0,0,0,0,0,0,0
574,1.9930191,-0.84868234,0.026527116,-0.064302556,0.064822674,0.06399949,-0.219668,7.412748,6.300791,0,0,0,0,0,0,0,0,0,0,0,0,0,0,0,0,0,0,0,0,0
575,1.987264,-0.845805,0.023180183,-0.11436999,-0.010811103,0.10767533,0.018555064,7.4534492,6.357054,0,0,0,0,0,0,0,0,0,0,0,0,0,0,0,0,0,0,0,0,0
576,1.980365,-0.84174144,0.016820403,-0.12608789,0.0041026,0.13324168,0.27593175,7.3744407,6.485144,0,0,0,0,0,0,0,0,0,0,0,0,0,0,0,0,0,0,0,0,0
577,1.9796748,-0.83922446,0.014598085,-0.076020464,0.07867111,0.09489216,0.17776948,7.307403,7.001095,0,0,0,0,0,0,0,0,0,0,0,0,0,0,0,0,0,0,0,0,0
578,1.9785163,-0.836824,0.013768363,-0.01956145,0.04564791,0.06719528,0.074818805,7.2894464,7.2010107,0,0,0,0,0,0,0,0,0,0,0,0,0,0,0,0,0,0,0,0,0
579,1.9775573,-0.8361277,0.011217272,0.0038743666,-0.04703009,0.045889992,-0.020949265,7.227197,6.8897643,0,0,0,0,0,0,0,0,0,0,0,0,0,0,0,0,0,0,0,0,0
580,1.9773145,-0.8363372,0.0083370125,0.025179654,-0.056617472,0.017127855,-0.11432313,7.224803,6.7101994,0,0,0,0,0,0,0,0,0,0,0,0,0,0,0,0,0,0,0,0,0
581,1.9778438,-0.83751893,0.0071614403,0.04223028,-0.03210627,-0.0041859564,-0.11911154,7.1469913,6.5078893,0,0,0,0,0,0,0,0,0,0,0,0,0,0,0,0,0,0,0,0,0
582,1.9769502,-0.8387168,0.007548719,0.0475566,-0.012931511,-0.019099658,-0.17298107,7.176919,6.207417,0,0,0,0,0,0,0,0,0,0,0,0,0,0,0,0,0,0,0,0,0
583,1.9757969,-0.8406147,0.008357104,0.006011287,0.0019821909,-0.005251221,-0.16220717,7.2451534,6.070947,0,0,0,0,0,0,0,0,0,0,0,0,0,0,0,0,0,0,0,0,0
584,1.9747078,-0.8399252,0.0082195895,-0.056839313,0.02115695,0.014988803,0.025737667,7.138612,6.2876225,0,0,0,0,0,0,0,0,0,0,0,0,0,0,0,0,0,0,0,0,0
585,1.975434,-0.83727974,0.008307974,-0.07175302,-0.0033441314,-0.0148386005,0.05686229,7.1852984,6.651541,0,0,0,0,0,0,0,0,0,0,0,0,0,0,0,0,0,0,0,0,0
586,1.9753463,-0.83579797,0.0065987473,-0.048317198,-0.06512947,-0.0148386005,0.11432313,7.319374,6.4420485,0,0,0,0,0,0,0,0,0,0,0,0,0,0,0,0,0,0,0,0,0
587,1.976371,-0.8339171,0.0058907666,-0.10477621,-0.033171535,-0.013773336,-0.002992752,7.3840175,6.876596,0,0,0,0,0,0,0,0,0,0,0,0,0,0,0,0,0,0,0,0,0
588,1.9794524,-0.8304006,0.0056681097,-0.03233823,9.1692636E-4,-0.028687038,0.002992752,7.222409,7.1662946,0,0,0,0,0,0,0,0,0,0,0,0,0,0,0,0,0,0,0,0,0
589,1.9837351,-0.83001864,0.007308422,0.021990253,-0.022518892,-0.070232354,-0.08678981,7.2236056,6.9508166,0,0,0,0,0,0,0,0,0,0,0,0,0,0,0,0,0,0,0,0,0
590,1.9879287,-0.83176726,0.010550406,0.067796625,-0.009735718,-0.08621132,-0.31423897,7.3864117,6.6659064,0,0,0,0,0,0,0,0,0,0,0,0,0,0,0,0,0,0,0,0,0
591,1.9889389,-0.8353644,0.0128864385,0.08590612,-0.00547466,-0.039339684,-0.2220622,7.388806,6.312762,0,0,0,0,0,0,0,0,0,0,0,0,0,0,0,0,0,0,0,0,0
592,1.9886657,-0.8358647,0.012888568,-0.0131634725,-0.04169365,-0.011642807,-0.15143326,7.2810664,6.4121213,0,0,0,0,0,0,0,0,0,0,0,0,0,0,0,0,0,0,0,0,0
593,1.9890293,-0.8349835,0.011846969,-0.039795082,-0.038497858,-0.02655651,-0.048482586,7.1972694,6.4396544,0,0,0,0,0,0,0,0,0,0,0,0,0,0,0,0,0,0,0,0,0
594,1.9900665,-0.8347907,0.012864292,0.011337609,0.016895892,-0.039339684,-0.0676362,7.2894464,6.409727,0,0,0,0,0,0,0,0,0,0,0,0,0,0,0,0,0,0,0,0,0
595,1.9918838,-0.8354125,0.01574025,0.014533402,0.053114884,-0.035078626,-0.08559271,7.203255,6.55697,0,0,0,0,0,0,0,0,0,0,0,0,0,0,0,0,0,0,0,0,0
596,1.9932371,-0.8352206,0.017567284,0.0028154938,0.033940125,-0.040404946,-0.219668,7.284658,6.7030168,0,0,0,0,0,0,0,0,0,0,0,0,0,0,0,0,0,0,0,0,0
597,1.9942417,-0.8357534,0.019541895,-0.0046413573,-0.016127305,-0.020164924,-0.19812019,7.3301477,6.4899325,0,0,0,0,0,0,0,0,0,0,0,0,0,0,0,0,0,0,0,0,0
598,1.9948068,-0.83467704,0.018468404,-0.051561728,-0.05988011,-0.009446233,-0.09756372,7.2894464,6.544999,0,0,0,0,0,0,0,0,0,0,0,0,0,0,0,0,0,0,0,0,0
599,1.9957259,-0.83333874,0.017926779,-0.024930118,-0.0023558324,-0.019033613,-0.14903906,7.2690954,6.6323876,0,0,0,0,0,0,0,0,0,0,0,0,0,0,0,0,0,0,0,0,0
600,1.9969628,-0.83376765,0.020365711,0.023006782,0.03173263,-0.022229405,-0.31902736,7.3912,6.69344,0,0,0,0,0,0,0,0,0,0,0,0,0,0,0,0,0,0,0,0,0
601,1.9960642,-0.8345318,0.021018721,-0.016408002,-0.05029273,0.021446437,-0.3298013,7.4378867,6.473173,0,0,0,0,0,0,0,0,0,0,0,0,0,0,0,0,0,0,0,0,0
602,1.9934932,-0.8329832,0.017048255,-0.060083844,-0.085446455,0.0704486,-0.18375498,7.3576813,6.586898,0,0,0,0,0,0,0,0,0,0,0,0,0,0,0,0,0,0,0,0,0
603,1.9893532,-0.83231765,0.0130880475,-0.03345223,-0.026856914,0.04594752,-0.14903906,7.3612723,6.3319154,0,0,0,0,0,0,0,0,0,0,0,0,0,0,0,0,0,0,0,0,0
604,1.9873145,-0.8319821,0.012539737,0.002766758,0.05303792,0.047012784,-0.11552023,7.249942,6.568941,0,0,0,0,0,0,0,0,0,0,0,0,0,0,0,0,0,0,0,0,0
605,1.9860184,-0.8315704,0.011800701,-0.023864852,-0.00661689,0.037425403,-0.16340427,7.226,6.6335845,0,0,0,0,0,0,0,0,0,0,0,0,0,0,0,0,0,0,0,0,0
606,1.9860384,-0.8307338,0.010313397,-0.038778555,-0.036444295,0.036360137,-0.010175358,7.174525,6.6539354,0,0,0,0,0,0,0,0,0,0,0,0,0,0,0,0,0,0,0,0,0
607,1.98604,-0.8296744,0.008347013,-0.004690093,-0.021530593,0.012924321,-0.030526072,7.200861,6.7401266,0,0,0,0,0,0,0,0,0,0,0,0,0,0,0,0,0,0,0,0,0
608,1.9867713,-0.8298865,0.007821424,0.009158345,-0.011943212,-9.241169E-4,-0.08439561,7.210438,6.669498,0,0,0,0,0,0,0,0,0,0,0,0,0,0,0,0,0,0,0,0,0
609,1.9873415,-0.83043975,0.00742529,0.020876253,-0.008747418,-0.0030546458,-0.0017956513,7.1697364,6.530634,0,0,0,0,0,0,0,0,0,0,0,0,0,0,0,0,0,0,0,0,0
610,1.9880905,-0.8307586,0.0064798268,0.009158345,-0.036444295,-0.0019893814,0.014963761,7.174525,6.566547,0,0,0,0,0,0,0,0,0,0,0,0,0,0,0,0,0,0,0,0,0
611,1.9884894,-0.8308731,0.0059372243,-0.002559564,-0.021530593,-0.0030546458,-0.048482586,7.198467,6.539014,0,0,0,0,0,0,0,0,0,0,0,0,0,0,0,0,0,0,0,0,0
612,1.9891686,-0.83106583,0.005762429,0.013419403,0.00297049,-0.0019893814,-0.030526072,7.1218524,6.5497875,0,0,0,0,0,0,0,0,0,0,0,0,0,0,0,0,0,0,0,0,0
613,1.9906924,-0.83036745,0.0061455537,-0.044104878,-0.032183237,-0.012642026,-0.16938977,7.179313,6.6766806,0,0,0,0,0,0,0,0,0,0,0,0,0,0,0,0,0,0,0,0,0
614,1.9911238,-0.829653,0.0055240346,-0.03771329,-0.05455379,-9.241169E-4,-0.091578215,7.176919,6.550985,0,0,0,0,0,0,0,0,0,0,0,0,0,0,0,0,0,0,0,0,0
615,1.9911565,-0.8285549,0.004272561,-0.027071299,0.009345299,-0.012627644,-0.050876785,7.278672,6.601263,0,0,0,0,0,0,0,0,0,0,0,0,0,0,0,0,0,0,0,0,0
616,1.9919567,-0.82809275,0.005764904,-0.0047007455,0.023193736,-0.012627644,-0.10354923,7.2894464,6.655133,0,0,0,0,0,0,0,0,0,0,0,0,0,0,0,0,0,0,0,0,0
617,1.992547,-0.8276579,0.0066279513,-0.021744976,-0.009829462,-0.008366587,-0.15981296,7.343316,6.7030168,0,0,0,0,0,0,0,0,0,0,0,0,0,0,0,0,0,0,0,0,0
618,1.9927071,-0.82727516,0.0072389324,-0.0025702168,0.008280034,0.003351322,-0.17896658,7.3732433,6.8083615,0,0,0,0,0,0,0,0,0,0,0,0,0,0,0,0,0,0,0,0,0
619,1.9920204,-0.8271179,0.0063092196,-0.007896539,-0.026873693,0.020395553,-0.11432313,7.3121915,6.7389297,0,0,0,0,0,0,0,0,0,0,0,0,0,0,0,0,0,0,0,0,0
620,1.9920155,-0.82705945,0.0061490266,0.012343485,0.022128472,0.010808173,-0.09756372,7.2655044,6.765266,0,0,0,0,0,0,0,0,0,0,0,0,0,0,0,0,0,0,0,0,0
621,1.9919612,-0.8280196,0.007601996,0.045366682,0.044499025,0.009742908,-0.14425065,7.3062057,6.7844195,0,0,0,0,0,0,0,0,0,0,0,0,0,0,0,0,0,0,0,0,0
622,1.990147,-0.8295013,0.006652562,0.0208656,-0.039656866,0.02465661,0.008978256,7.248745,6.443246,0,0,0,0,0,0,0,0,0,0,0,0,0,0,0,0,0,0,0,0,0
623,1.9884453,-0.8300477,0.004947088,0.009147692,-0.010894726,0.012938702,0.0053869537,7.2176204,6.43726,0,0,0,0,0,0,0,0,0,0,0,0,0,0,0,0,0,0,0,0,0
624,1.9881682,-0.8312346,0.006216218,0.041105624,0.054086406,-0.0041055293,0.013766659,7.1457944,6.493524,0,0,0,0,0,0,0,0,0,0,0,0,0,0,0,0,0,0,0,0,0
625,1.9885868,-0.83149326,0.0074454057,0.008082427,0.033846382,-0.0051707937,-0.107140526,7.2331824,6.6647096,0,0,0,0,0,0,0,0,0,0,0,0,0,0,0,0,0,0,0,0,0
626,1.9883603,-0.831623,0.0077408417,-0.0025702168,-0.0140905185,0.014003966,-0.034117375,7.164948,6.577321,0,0,0,0,0,0,0,0,0,0,0,0,0,0,0,0,0,0,0,0,0
627,1.9874864,-0.83135265,0.0064727804,-0.011092332,-0.007698932,0.003351322,0.02813187,7.1434,6.4516253,0,0,0,0,0,0,0,0,0,0,0,0,0,0,0,0,0,0,0,0,0
628,1.9881166,-0.83085376,0.0075250054,-0.0068312744,0.034911644,-0.007301322,-0.054468088,7.1817074,6.673089,0,0,0,0,0,0,0,0,0,0,0,0,0,0,0,0,0,0,0,0,0
629,1.9882629,-0.8306376,0.007674396,-0.0036354812,-0.020482106,-0.0051707937,-0.0053869537,7.210438,6.604854,0,0,0,0,0,0,0,0,0,0,0,0,0,0,0,0,0,0,0,0,0
630,1.9886105,-0.8303152,0.007245383,-0.014288126,0.005084241,-0.019019231,0.014963761,7.2056494,6.574927,0,0,0,0,0,0,0,0,0,0,0,0,0,0,0,0,0,0,0,0,0
631,1.9899579,-0.829988,0.009083853,-0.008972456,0.005067463,-0.039244875,-0.14784196,7.3002205,6.63957,0,0,0,0,0,0,0,0,0,0,0,0,0,0,0,0,0,0,0,0,0
632,1.9899012,-0.8300545,0.00947336,-0.011102985,-0.03434732,-0.009417471,-0.12150574,7.3241625,6.4420485,0,0,0,0,0,0,0,0,0,0,0,0,0,0,0,0,0,0,0,0,0
633,1.9891758,-0.82925665,0.0096582165,-0.028147215,0.015720107,0.008692025,-0.19931729,7.343316,6.6156282,0,0,0,0,0,0,0,0,0,0,0,0,0,0,0,0,0,0,0,0,0
634,1.9889674,-0.82904065,0.010327937,6.149239E-4,0.03809066,0.01721414,-0.17298107,7.2702928,6.7401266,0,0,0,0,0,0,0,0,0,0,0,0,0,0,0,0,0,0,0,0,0
635,1.9888589,-0.8284133,0.010476545,-0.020690365,-0.018368354,0.015083612,-0.14305355,7.26311,6.8346977,0,0,0,0,0,0,0,0,0,0,0,0,0,0,0,0,0,0,0,0,0
636,1.9886261,-0.8277947,0.009600675,-0.0025808695,-0.008780975,0.010822554,-0.12988544,7.260716,6.7509007,0,0,0,0,0,0,0,0,0,0,0,0,0,0,0,0,0,0,0,0,0
637,1.988736,-0.8285824,0.01037538,0.044290766,0.03809066,-8.953548E-4,-0.13227965,7.222409,6.73055,0,0,0,0,0,0,0,0,0,0,0,0,0,0,0,0,0,0,0,0,0
638,1.9887317,-0.8304533,0.010883353,0.053878143,-0.010911504,-0.0030258836,-0.107140526,7.204452,6.5078893,0,0,0,0,0,0,0,0,0,0,0,0,0,0,0,0,0,0,0,0,0
639,1.9873841,-0.83126676,0.010475764,0.019789683,-0.02475994,0.0044309674,-0.110731825,7.310994,6.3582516,0,0,0,0,0,0,0,0,0,0,0,0,0,0,0,0,0,0,0,0,0
640,1.9856784,-0.83248925,0.010115468,0.01659389,0.023176959,0.0076267608,-0.02813187,7.237971,6.3235354,0,0,0,0,0,0,0,0,0,0,0,0,0,0,0,0,0,0,0,0,0
641,1.9841552,-0.83263063,0.009787939,-0.0196251,-2.5885925E-4,0.015083612,0.012569559,7.258322,6.413318,0,0,0,0,0,0,0,0,0,0,0,0,0,0,0,0,0,0,0,0,0
642,1.9827101,-0.8315178,0.00836038,-0.037734594,0.0018716695,0.033193108,0.050876785,7.2702928,6.6275992,0,0,0,0,0,0,0,0,0,0,0,0,0,0,0,0,0,0,0,0,0
643,1.9825608,-0.83086413,0.0072008953,0.0027454528,0.009328521,0.025736256,0.065242,7.215226,6.783222,0,0,0,0,0,0,0,0,0,0,0,0,0,0,0,0,0,0,0,0,0
644,1.9833325,-0.83069927,0.0069772042,0.005941246,-0.013042033,0.0023004385,-0.037708677,7.3002205,6.807164,0,0,0,0,0,0,0,0,0,0,0,0,0,0,0,0,0,0,0,0,0
645,1.983743,-0.8307057,0.0056633754,0.005941246,-0.02689047,0.022540463,0.05566519,7.2571244,6.76766,0,0,0,0,0,0,0,0,0,0,0,0,0,0,0,0,0,0,0,0,0
646,1.9842315,-0.83055913,0.0031398835,0.0048759817,-0.058848403,1.6990968E-4,0.17178397,7.1637506,6.6683006,0,0,0,0,0,0,0,0,0,0,0,0,0,0,0,0,0,0,0,0,0
647,1.9860088,-0.83125156,0.0023095652,0.03363812,-0.03434732,-0.037114345,0.073621705,7.2056494,6.622811,0,0,0,0,0,0,0,0,0,0,0,0,0,0,0,0,0,0,0,0,0
648,1.9869207,-0.8321551,0.0026981386,0.045330465,-0.03012621,-0.047732636,-0.024540568,7.224803,6.497115,0,0,0,0,0,0,0,0,0,0,0,0,0,0,0,0,0,0,0,0,0
649,1.9886404,-0.8335597,0.0036811172,0.026155705,-0.024799889,-0.048797898,-0.10235212,7.2930374,6.4516253,0,0,0,0,0,0,0,0,0,0,0,0,0,0,0,0,0,0,0,0,0
650,1.9907663,-0.83434427,0.005662945,0.016568324,-0.0034946,-0.05092843,-0.23403321,7.310994,6.5521817,0,0,0,0,0,0,0,0,0,0,0,0,0,0,0,0,0,0,0,0,0
651,1.9920315,-0.8352344,0.007826498,0.020829381,-2.9880667E-4,-0.02962314,-0.31304187,7.346907,6.4887357,0,0,0,0,0,0,0,0,0,0,0,0,0,0,0,0,0,0,0,0,0
652,1.9918964,-0.8358021,0.009058328,0.015503059,0.00609278,-0.016839966,-0.29628247,7.3062057,6.455217,0,0,0,0,0,0,0,0,0,0,0,0,0,0,0,0,0,0,0,0,0
653,1.9918395,-0.83634603,0.010218294,-0.0026064357,0.0050275153,-0.004056793,-0.20649989,7.296629,6.4408517,0,0,0,0,0,0,0,0,0,0,0,0,0,0,0,0,0,0,0,0,0
654,1.9908531,-0.83648807,0.010864214,-0.012193816,0.0018317222,0.0023347933,-0.17776948,7.346907,6.4444427,0,0,0,0,0,0,0,0,0,0,0,0,0,0,0,0,0,0,0,0,0
655,1.9895189,-0.83629304,0.010916414,-0.023911724,0.01568016,0.016183231,-0.11192893,7.295432,6.4324718,0,0,0,0,0,0,0,0,0,0,0,0,0,0,0,0,0,0,0,0,0
656,1.988981,-0.8349107,0.011099951,-0.038825426,0.022071747,0.02577061,-0.15981296,7.3493013,6.7939963,0,0,0,0,0,0,0,0,0,0,0,0,0,0,0,0,0,0,0,0,0
657,1.9880512,-0.8342797,0.0097606,-0.005802229,-0.014147244,0.034292728,-0.05925649,7.2894464,6.7868137,0,0,0,0,0,0,0,0,0,0,0,0,0,0,0,0,0,0,0,0,0
658,1.9873217,-0.83449304,0.008772543,0.009111473,-0.020538831,0.019379023,-0.013766659,7.242759,6.5162687,0,0,0,0,0,0,0,0,0,0,0,0,0,0,0,0,0,0,0,0,0
659,1.9869297,-0.8351234,0.00918838,0.028286234,0.049768623,0.0012695289,-0.08200141,7.242759,6.521057,0,0,0,0,0,0,0,0,0,0,0,0,0,0,0,0,0,0,0,0,0
660,1.9865165,-0.83561635,0.01030993,-0.0026064357,0.021006482,0.0012695289,-0.076015905,7.198467,6.4240923,0,0,0,0,0,0,0,0,0,0,0,0,0,0,0,0,0,0,0,0,0
661,1.9863169,-0.83437747,0.009959061,-0.03030331,0.0018317222,0.014052702,-0.036511578,7.203255,6.5833063,0,0,0,0,0,0,0,0,0,0,0,0,0,0,0,0,0,0,0,0,0
662,1.9860228,-0.8341462,0.009328593,-0.0026064357,-0.0077556577,0.006595851,0.0724246,7.141006,6.5521817,0,0,0,0,0,0,0,0,0,0,0,0,0,0,0,0,0,0,0,0,0
663,1.9854912,-0.83408403,0.008990372,-0.012193816,0.0018317222,-0.015774703,-0.014963761,7.261913,6.4779615,0,0,0,0,0,0,0,0,0,0,0,0,0,0,0,0,0,0,0,0,0
664,1.9858879,-0.8337236,0.010170542,-0.010063287,0.022071747,0.010856909,-0.11552023,7.3133883,6.768857,0,0,0,0,0,0,0,0,0,0,0,0,0,0,0,0,0,0,0,0,0
665,1.9854848,-0.8325862,0.00890852,-0.03456437,-0.048235707,0.00872638,-0.11791443,7.3253593,6.7939963,0,0,0,0,0,0,0,0,0,0,0,0,0,0,0,0,0,0,0,0,0
666,1.9854054,-0.832375,0.008392176,0.017633589,-0.010951451,0.011922173,-0.15023616,7.2714896,6.7281556,0,0,0,0,0,0,0,0,0,0,0,0,0,0,0,0,0,0,0,0,0
667,1.9849944,-0.8331958,0.00901375,0.024025176,0.008223309,0.012987438,-0.31663316,7.3421187,6.7030168,0,0,0,0,0,0,0,0,0,0,0,0,0,0,0,0,0,0,0,0,0
668,1.9842336,-0.8335568,0.008863373,0.012307267,-0.031191476,0.032162197,-0.31423897,7.227197,6.6982284,0,0,0,0,0,0,0,0,0,0,0,0,0,0,0,0,0,0,0,0,0
669,1.9816386,-0.83455384,0.0066571143,0.03041676,-0.04184412,0.009791644,-0.107140526,7.1948752,6.256498,0,0,0,0,0,0,0,0,0,0,0,0,0,0,0,0,0,0,0,0,0
670,1.979322,-0.8371025,0.007837197,0.045330465,0.06681285,-0.0072525865,-0.18974048,7.3636665,5.999121,0,0,0,0,0,0,0,0,0,0,0,0,0,0,0,0,0,0,0,0,0
671,1.9778523,-0.8378184,0.009919615,-0.008998022,0.09557499,0.03748852,-0.22804771,7.4690113,6.425289,0,0,0,0,0,0,0,0,0,0,0,0,0,0,0,0,0,0,0,0,0
672,1.9743689,-0.83655465,0.008381621,-0.10806762,-0.055692557,0.09181701,0.08200141,7.319374,6.5019035,0,0,0,0,0,0,0,0,0,0,0,0,0,0,0,0,0,0,0,0,0
673,1.9721541,-0.8322763,0.0031407857,-0.06332651,0.022071747,0.055598013,0.13946225,7.179313,6.9424367,0,0,0,0,0,0,0,0,0,0,0,0,0,0,0,0,0,0,0,0,0
674,1.9730465,-0.83201206,0.00423459,0.062374696,0.10090131,0.016183231,0.05207389,7.203255,7.051373,0,0,0,0,0,0,0,0,0,0,0,0,0,0,0,0,0,0,0,0,0
675,1.9730273,-0.83383304,0.004820697,0.031482026,-0.008820922,0.0076611154,-0.047285482,7.3002205,6.616825,0,0,0,0,0,0,0,0,0,0,0,0,0,0,0,0,0,0,0,0,0
676,1.9724979,-0.8340425,0.003503434,-0.0047369646,-0.03225674,0.032162197,0.10235212,7.260716,6.5114803,0,0,0,0,0,0,0,0,0,0,0,0,0,0,0,0,0,0,0,0,0
677,1.9725524,-0.8339848,0.002813569,0.012307267,0.019941218,0.0076611154,0.08200141,7.2702928,6.616825,0,0,0,0,0,0,0,0,0,0,0,0,0,0,0,0,0,0,0,0,0
678,1.9725823,-0.83523047,0.004703424,0.05811364,0.074269705,-0.015774703,-0.13467385,7.249942,6.6192193,0,0,0,0,0,0,0,0,0,0,0,0,0,0,0,0,0,0,0,0,0
679,1.9737469,-0.8365881,0.008990951,0.03254729,0.07853076,-0.012578908,-0.41599256,7.3397245,6.7760396,0,0,0,0,0,0,0,0,0,0,0,0,0,0,0,0,0,0,0,0,0
680,1.973682,-0.8383378,0.012265115,0.08048419,0.059356,0.017248495,-0.47345337,7.2894464,6.718579,0,0,0,0,0,0,0,0,0,0,0,0,0,0,0,0,0,0,0,0,0
681,1.9721847,-0.83969533,0.0134908175,0.055970326,0.03163782,0.03324504,-0.44232875,7.3277535,6.4408517,0,0,0,0,0,0,0,0,0,0,0,0,0,0,0,0,0,0,0,0,0
682,1.9687785,-0.84211916,0.014675004,0.06449244,0.061465226,0.053485062,-0.4758476,7.367258,6.300791,0,0,0,0,0,0,0,0,0,0,0,0,0,0,0,0,0,0,0,0,0
683,1.9631937,-0.8442944,0.015502984,0.032534506,0.07957472,0.10142196,-0.44831428,7.3780317,6.255301,0,0,0,0,0,0,0,0,0,0,0,0,0,0,0,0,0,0,0,0,0
684,1.9556615,-0.8452956,0.014240094,0.008033426,0.06998734,0.11740093,-0.29508537,7.3337393,6.184672,0,0,0,0,0,0,0,0,0,0,0,0,0,0,0,0,0,0,0,0,0
685,1.9473271,-0.84580976,0.012559289,-0.01007607,0.09661895,0.13444516,-0.09995792,7.3038116,6.15235,0,0,0,0,0,0,0,0,0,0,0,0,0,0,0,0,0,0,0,0,0
686,1.9427898,-0.8453133,0.010487281,-0.06760035,0.048682053,0.13870622,0.11552023,7.3002205,6.324733,0,0,0,0,0,0,0,0,0,0,0,0,0,0,0,0,0,0,0,0,0
687,1.9350854,-0.8430077,0.0045298375,-0.08570985,7.451525E-4,0.124857776,0.3645172,7.290643,6.31755,0,0,0,0,0,0,0,0,0,0,0,0,0,0,0,0,0,0,0,0,0
688,1.9302036,-0.84053224,5.8492855E-4,-0.062274028,0.08490104,0.064137705,0.43754035,7.2655044,6.457611,0,0,0,0,0,0,0,0,0,0,0,0,0,0,0,0,0,0,0,0,0
689,1.9294636,-0.8396183,0.0036253552,-0.01007607,0.14881691,0.017266072,0.12150574,7.4079595,6.706608,0,0,0,0,0,0,0,0,0,0,0,0,0,0,0,0,0,0,0,0,0
690,1.928888,-0.83879733,0.003061566,-0.026055036,0.0028756813,0.04602821,0.22804771,7.2894464,6.7604775,0,0,0,0,0,0,0,0,0,0,0,0,0,0,0,0,0,0,0,0,0
691,1.9281585,-0.83784366,-1.6038248E-4,-0.07292667,-0.10578129,0.05028927,0.3405752,7.3660607,6.61084,0,0,0,0,0,0,0,0,0,0,0,0,0,0,0,0,0,0,0,0,0
692,1.9265337,-0.83559096,-0.006134927,-0.04416453,-0.062105447,0.03644083,0.3226187,7.3852143,6.669498,0,0,0,0,0,0,0,0,0,0,0,0,0,0,0,0,0,0,0,0,0
693,1.926594,-0.8351271,-0.0077532274,0.021881863,0.007136739,0.009809221,0.14544775,7.376835,6.863428,0,0,0,0,0,0,0,0,0,0,0,0,0,0,0,0,0,0,0,0,0
694,1.9267482,-0.8357256,-0.0074033528,0.053839795,-0.019494873,0.017266072,-0.08080431,7.3720465,6.723367,0,0,0,0,0,0,0,0,0,0,0,0,0,0,0,0,0,0,0,0,0
695,1.9243177,-0.83715874,-0.01095584,0.00909869,-0.051452804,0.049224004,-0.06404489,7.266701,6.6156282,0,0,0,0,0,0,0,0,0,0,0,0,0,0,0,0,0,0,0,0,0
696,1.923314,-0.8370597,-0.012994859,-4.8869004E-4,-0.049322277,0.05028927,0.17178397,7.1398087,6.4755673,0,0,0,0,0,0,0,0,0,0,0,0,0,0,0,0,0,0,0,0,0
697,1.9223005,-0.83626443,-0.016408946,-0.032446623,-0.025886457,-0.0040392163,0.3309984,7.118261,6.497115,0,0,0,0,0,0,0,0,0,0,0,0,0,0,0,0,0,0,0,0,0
698,1.9239528,-0.83621114,-0.015801592,0.024012392,0.00500621,-0.032801356,0.25198972,7.1374145,6.4983125,0,0,0,0,0,0,0,0,0,0,0,0,0,0,0,0,0,0,0,0,0
699,1.9242723,-0.8369062,-0.015887283,-0.0058150124,-0.039734896,-0.042388737,0.27234045,7.2080436,6.293608,0,0,0,0,0,0,0,0,0,0,0,0,0,0,0,0,0,0,0,0,0
700,1.9277347,-0.83616555,-0.014082842,-0.011141335,0.025246235,-0.05304138,0.0700304,7.307403,6.5114803,0,0,0,0,0,0,0,0,0,0,0,0,0,0,0,0,0,0,0,0,0
701,1.9301286,-0.83611876,-0.011390361,0.015490277,0.06998734,-0.049845587,-0.10594343,7.2559276,6.7269588,0,0,0,0,0,0,0,0,0,0,0,0,0,0,0,0,0,0,0,0,0
702,1.9324669,-0.83592165,-0.008933996,-0.012206599,-3.2011195E-4,-0.011496067,-0.06284779,7.2942348,6.7401266,0,0,0,0,0,0,0,0,0,0,0,0,0,0,0,0,0,0,0,0,0
703,1.9320115,-0.83430356,-0.012061898,-0.061208762,-0.07808442,0.027918717,0.20290859,7.3133883,6.614431,0,0,0,0,0,0,0,0,0,0,0,0,0,0,0,0,0,0,0,0,0
704,1.9322597,-0.83339065,-0.013700145,-0.038838208,-0.030147515,0.004482899,0.2184709,7.2212114,6.5952773,0,0,0,0,0,0,0,0,0,0,0,0,0,0,0,0,0,0,0,0,0
705,1.9345518,-0.8320268,-0.013183135,0.006968161,0.013528326,-0.030670827,0.004189853,7.206846,6.890961,0,0,0,0,0,0,0,0,0,0,0,0,0,0,0,0,0,0,0,0,0
706,1.9364645,-0.83289474,-0.011826164,0.006968161,-0.032278046,-0.020018183,-0.038905777,7.3959885,6.669498,0,0,0,0,0,0,0,0,0,0,0,0,0,0,0,0,0,0,0,0,0
707,1.9363515,-0.8328537,-0.013269263,-0.011141335,-0.058909655,0.008743957,0.006584055,7.3026147,6.586898,0,0,0,0,0,0,0,0,0,0,0,0,0,0,0,0,0,0,0,0,0
708,1.9364893,-0.83248955,-0.0151949655,-0.004749748,-0.055713862,-0.005104481,0.092775315,7.192481,6.5725327,0,0,0,0,0,0,0,0,0,0,0,0,0,0,0,0,0,0,0,0,0
709,1.937087,-0.8334757,-0.014128587,0.02827345,0.012463061,-0.028540298,-0.030526072,7.3301477,6.493524,0,0,0,0,0,0,0,0,0,0,0,0,0,0,0,0,0,0,0,0,0
710,1.9368523,-0.83423877,-0.012910684,0.02827345,0.018854648,-0.0125613315,-0.09636662,7.364864,6.527043,0,0,0,0,0,0,0,0,0,0,0,0,0,0,0,0,0,0,0,0,0
711,1.9362781,-0.8345888,-0.012661237,-0.011141335,-0.015233814,0.0130050145,-0.06404489,7.2942348,6.5102835,0,0,0,0,0,0,0,0,0,0,0,0,0,0,0,0,0,0,0,0,0
712,1.9358146,-0.83354694,-0.014341566,-0.038838208,-0.030147515,-8.434231E-4,0.16699557,7.179313,6.518663,0,0,0,0,0,0,0,0,0,0,0,0,0,0,0,0,0,0,0,0,0
713,1.9359263,-0.83311915,-0.014343752,-0.0036844832,-0.0024506408,-0.02427924,0.04249708,7.242759,6.5318313,0,0,0,0,0,0,0,0,0,0,0,0,0,0,0,0,0,0,0,0,0
714,1.936907,-0.83363885,-0.012487618,0.031469245,0.040159937,-0.021083448,0.004189853,7.3026147,6.5677443,0,0,0,0,0,0,0,0,0,0,0,0,0,0,0,0,0,0,0,0,0
715,1.936942,-0.83453363,-0.0108743785,-0.003701794,-0.011000986,-0.012538162,-0.02932897,7.328951,6.461202,0,0,0,0,0,0,0,0,0,0,0,0,0,0,0,0,0,0,0,0,0
716,1.9366478,-0.8336698,-0.011479647,-0.028202876,-0.014196779,0.008767126,0.04129998,7.307403,6.5797153,0,0,0,0,0,0,0,0,0,0,0,0,0,0,0,0,0,0,0,0,0
717,1.9368827,-0.83342206,-0.011178969,-5.060006E-4,0.017761154,-8.202536E-4,0.05327099,7.240365,6.5857005,0,0,0,0,0,0,0,0,0,0,0,0,0,0,0,0,0,0,0,0,0
718,1.9370948,-0.833615,-0.01060331,-0.003701794,0.020956947,-0.0029507824,0.011372458,7.3086,6.5521817,0,0,0,0,0,0,0,0,0,0,0,0,0,0,0,0,0,0,0,0,0
719,1.9370015,-0.8334032,-0.010821446,-0.03459446,-0.022718895,0.016223976,0.16340427,7.242759,6.5282397,0,0,0,0,0,0,0,0,0,0,0,0,0,0,0,0,0,0,0,0,0
720,1.9372933,-0.83114123,-0.013248007,-0.054834485,-0.02911048,-0.0029507824,0.1921347,7.18889,6.6419644,0,0,0,0,0,0,0,0,0,0,0,0,0,0,0,0,0,0,0,0,0
721,1.9395659,-0.83038056,-0.011798149,0.013342437,0.051849615,-0.030647658,0.073621705,7.228394,6.783222,0,0,0,0,0,0,0,0,0,0,0,0,0,0,0,0,0,0,0,0,0
722,1.9411777,-0.8318564,-0.009298489,0.044235107,0.008173774,-0.024256071,-0.024540568,7.248745,6.651541,0,0,0,0,0,0,0,0,0,0,0,0,0,0,0,0,0,0,0,0,0
723,1.9402606,-0.8320652,-0.010574492,-0.036724992,-0.091961086,0.0023755396,0.09756372,7.26311,6.372617,0,0,0,0,0,0,0,0,0,0,0,0,0,0,0,0,0,0,0,0,0
724,1.9398988,-0.83059746,-0.013483465,-0.045247108,-0.016327308,-0.0029507824,0.18854338,7.1434,6.4659905,0,0,0,0,0,0,0,0,0,0,0,0,0,0,0,0,0,0,0,0,0
725,1.9420403,-0.8298432,-0.01130206,0.011211908,0.033740122,-0.042365566,-0.002992752,7.1948752,6.7101994,0,0,0,0,0,0,0,0,0,0,0,0,0,0,0,0,0,0,0,0,0
726,1.9439819,-0.8305967,-0.008265952,0.010146644,0.023087475,-0.0413003,-0.13587095,7.356484,6.598869,0,0,0,0,0,0,0,0,0,0,0,0,0,0,0,0,0,0,0,0,0
727,1.9450215,-0.8298601,-0.007231705,-0.043116577,-0.03869786,-0.011472898,-0.17417817,7.3337393,6.6898484,0,0,0,0,0,0,0,0,0,0,0,0,0,0,0,0,0,0,0,0,0
728,1.9458094,-0.82776624,-0.010221538,-0.054834485,-0.11007058,-0.012538162,0.032920275,7.154174,6.5258455,0,0,0,0,0,0,0,0,0,0,0,0,0,0,0,0,0,0,0,0,0
729,1.9464529,-0.8277491,-0.0101505695,0.0026897928,-0.024849424,-0.04769189,0.024540568,7.1457944,6.4600053,0,0,0,0,0,0,0,0,0,0,0,0,0,0,0,0,0,0,0,0,0
730,1.9481611,-0.8292879,-0.007096148,0.03571299,0.033740122,-0.046626624,-0.006584055,7.3097973,6.3594484,0,0,0,0,0,0,0,0,0,0,0,0,0,0,0,0,0,0,0,0,0
731,1.947246,-0.82933503,-0.0073015466,-0.056969278,-0.025921611,-0.0018799254,0.16819267,7.370849,6.2900167,0,0,0,0,0,0,0,0,0,0,0,0,0,0,0,0,0,0,0,0,0
732,1.9469904,-0.8283866,-0.00837558,-0.07081772,-0.008877381,0.017294833,0.23044191,7.328951,6.5976715,0,0,0,0,0,0,0,0,0,0,0,0,0,0,0,0,0,0,0,0,0
733,1.9477147,-0.82554644,-0.010110072,-0.07401351,-0.030182669,0.019425362,0.29149407,7.3086,6.9867296,0,0,0,0,0,0,0,0,0,0,0,0,0,0,0,0,0,0,0,0,0
734,1.9498274,-0.8231527,-0.012505742,-0.017554492,-0.05255322,-0.010402041,0.29867667,7.192481,7.1196074,0,0,0,0,0,0,0,0,0,0,0,0,0,0,0,0,0,0,0,0,0
735,1.9524019,-0.823442,-0.013912402,0.03144767,-0.044031106,-0.027446272,0.26755205,7.2571244,6.9520135,0,0,0,0,0,0,0,0,0,0,0,0,0,0,0,0,0,0,0,0,0
736,1.9550656,-0.8245253,-0.015783157,0.03570873,-0.08238063,-0.030642064,0.30107087,7.284658,6.899341,0,0,0,0,0,0,0,0,0,0,0,0,0,0,0,0,0,0,0,0,0
737,1.956467,-0.82487273,-0.01761582,0.0335782,-0.105816446,-0.03383786,0.29149407,7.2451534,6.825121,0,0,0,0,0,0,0,0,0,0,0,0,0,0,0,0,0,0,0,0,0
738,1.9600486,-0.82571167,-0.018319903,0.066601396,-0.017399497,-0.059404206,0.035314474,7.237971,7.0453873,0,0,0,0,0,0,0,0,0,0,0,0,0,0,0,0,0,0,0,0,0
739,1.9646093,-0.8288764,-0.014151824,0.12838674,0.015623701,-0.06792632,-0.31064767,7.261913,7.096863,0,0,0,0,0,0,0,0,0,0,0,0,0,0,0,0,0,0,0,0,0
740,1.9674836,-0.83239585,-0.013290701,0.113473035,-0.088772215,-0.03916418,-0.20290859,7.1469913,6.7975874,0,0,0,0,0,0,0,0,0,0,0,0,0,0,0,0,0,0,0,0,0
741,1.9692252,-0.83556813,-0.013986016,0.09216774,-0.07918483,-0.060469467,-0.089184016,7.0512233,6.364237,0,0,0,0,0,0,0,0,0,0,0,0,0,0,0,0,0,0,0,0,0
742,1.9693798,-0.8377372,-0.0112135345,0.10708144,0.045451105,-0.08603582,-0.28670564,7.1948752,6.1942487,0,0,0,0,0,0,0,0,0,0,0,0,0,0,0,0,0,0,0,0,0
743,1.9708766,-0.84133303,-0.0053525046,0.051687695,0.06569113,-0.049816824,-0.23283611,7.162554,6.1439705,0,0,0,0,0,0,0,0,0,0,0,0,0,0,0,0,0,0,0,0,0
744,1.9709247,-0.84142935,-0.0024859237,-0.025011344,0.02734161,-0.022119949,-0.0724246,7.117064,6.2373443,0,0,0,0,0,0,0,0,0,0,0,0,0,0,0,0,0,0,0,0,0
745,1.9712715,-0.8411293,0.00168601,-0.018619757,0.093388006,-0.045555767,-0.20171149,7.352893,6.3319154,0,0,0,0,0,0,0,0,0,0,0,0,0,0,0,0,0,0,0,0,0
746,1.9718951,-0.84124285,0.005660007,0.027186614,0.15091228,-0.038098916,-0.26515785,7.460632,6.6072483,0,0,0,0,0,0,0,0,0,0,0,0,0,0,0,0,0,0,0,0,0
747,1.9726536,-0.84173125,0.011141228,-0.014358699,0.0635606,-0.011467305,-0.29269117,7.512107,6.613234,0,0,0,0,0,0,0,0,0,0,0,0,0,0,0,0,0,0,0,0,0
748,1.9713309,-0.8424257,0.013479211,0.053807307,0.06993461,0.025831597,-0.26156655,7.67611,6.6192193,0,0,0,0,0,0,0,0,0,0,0,0,0,0,0,0,0,0,0,0,0
749,1.9687023,-0.8444575,0.013775496,0.04954625,0.049694587,0.06418112,-0.01616086,7.639,6.744915,0,0,0,0,0,0,0,0,0,0,0,0,0,0,0,0,0,0,0,0,0
750,1.9677936,-0.8451624,0.011672524,0.038893603,-0.025939189,0.02157054,0.05805939,7.621043,7.0082774,0,0,0,0,0,0,0,0,0,0,0,0,0,0,0,0,0,0,0,0,0
751,1.9668734,-0.84692407,0.011118787,0.15394217,0.0038882152,0.015178952,-0.030526072,7.6725187,6.663512,0,0,0,0,0,0,0,0,0,0,0,0,0,0,0,0,0,0,0,0,0
752,1.9652491,-0.85228384,0.010600544,0.15926848,0.0038882152,0.05778953,-0.10235212,7.552809,6.682666,0,0,0,0,0,0,0,0,0,0,0,0,0,0,0,0,0,0,0,0,0
753,1.9621954,-0.8569421,0.008635926,0.13263687,-0.03339604,0.05778953,-0.3573346,7.513304,6.6192193,0,0,0,0,0,0,0,0,0,0,0,0,0,0,0,0,0,0,0,0,0
754,1.959239,-0.86301374,0.0072144307,0.2604686,0.03371562,0.071637966,-0.35254622,7.3301477,6.5833063,0,0,0,0,0,0,0,0,0,0,0,0,0,0,0,0,0,0,0,0,0
755,1.954552,-0.8727568,0.0057981084,0.25301176,-0.032330774,0.03115792,-0.12509704,7.275081,5.8818054,0,0,0,0,0,0,0,0,0,0,0,0,0,0,0,0,0,0,0,0,0
756,1.9511013,-0.87625504,0.005005525,0.1347674,-0.05789712,0.014113689,-0.16938977,7.3457103,5.608866,0,0,0,0,0,0,0,0,0,0,0,0,0,0,0,0,0,0,0,0,0
757,1.9474173,-0.8809192,0.0039097695,0.11133158,0.046498794,0.02157054,-0.073621705,7.3062057,5.6220345,0,0,0,0,0,0,0,0,0,0,0,0,0,0,0,0,0,0,0,0,0
758,1.9438217,-0.88501346,0.005907625,0.06978627,0.08804411,0.016244218,-0.019752163,7.4091563,5.59091,0,0,0,0,0,0,0,0,0,0,0,0,0,0,0,0,0,0,0,0,0
759,1.9397026,-0.88605624,0.0068454356,-0.025022263,0.07526093,0.04394109,0.013766659,7.4450693,5.6471734,0,0,0,0,0,0,0,0,0,0,0,0,0,0,0,0,0,0,0,0,0
760,1.9382908,-0.88441014,0.009067456,-0.0388707,0.14343786,0.0407453,-0.02813187,7.3253593,6.0853124,0,0,0,0,0,0,0,0,0,0,0,0,0,0,0,0,0,0,0,0,0
761,1.9387143,-0.88390625,0.010854934,-0.016500147,0.12532836,0.015178952,0.037708677,7.4091563,6.228965,0,0,0,0,0,0,0,0,0,0,0,0,0,0,0,0,0,0,0,0,0
762,1.9378018,-0.88276696,0.012002311,-0.11876553,-0.025939189,-0.013583187,0.18974048,7.6737156,6.0482025,0,0,0,0,0,0,0,0,0,0,0,0,0,0,0,0,0,0,0,0,0
763,1.937466,-0.876564,0.008540683,-0.23700988,-0.07281082,-0.0029305425,0.32022446,7.641394,6.04102,0,0,0,0,0,0,0,0,0,0,0,0,0,0,0,0,0,0,0,0,0
764,1.9426458,-0.8690214,0.009658296,-0.13261397,0.07526093,-0.029562153,0.24720132,7.5540056,7.1399584,0,0,0,0,0,0,0,0,0,0,0,0,0,0,0,0,0,0,0,0,0
765,1.9468772,-0.86860114,0.011949327,0.1070447,0.062435415,-0.10516131,0.11552023,7.7096286,6.9304657,0,0,0,0,0,0,0,0,0,0,0,0,0,0,0,0,0,0,0,0,0
766,1.952478,-0.87317806,0.018572327,0.14432895,0.009172193,-0.08598655,-0.43275195,8.360851,6.598869,0,0,0,0,0,0,0,0,0,0,0,0,0,0,0,0,0,0,0,0,0
767,1.9510336,-0.87929606,0.019897303,0.18054794,0.024085894,0.10576105,-0.3716998,8.038832,6.329521,0,0,0,0,0,0,0,0,0,0,0,0,0,0,0,0,0,0,0,0,0
768,1.9433047,-0.88388956,0.012722018,0.10810996,-0.08457108,0.15795901,-0.0712275,7.544429,6.2385416,0,0,0,0,0,0,0,0,0,0,0,0,0,0,0,0,0,0,0,0,0
769,1.9365761,-0.8874204,0.0031615535,0.12515418,-0.120790064,0.12919687,-0.036511578,7.653365,6.348675,0,0,0,0,0,0,0,0,0,0,0,0,0,0,0,0,0,0,0,0,0
770,1.9372972,-0.88909143,-9.108222E-4,0.3009228,0.021955365,0.053563092,0.24480712,7.4259157,6.9400425,0,0,0,0,0,0,0,0,0,0,0,0,0,0,0,0,0,0,0,0,0
771,1.937665,-0.9024536,0.002715539,0.5054536,0.12741655,-0.057224408,-0.28431144,7.96102,6.396559,0,0,0,0,0,0,0,0,0,0,0,0,0,0,0,0,0,0,0,0,0
772,1.9358779,-0.91999215,0.009258314,0.4841483,0.1199597,0.07806417,-0.54049104,8.352472,5.936872,0,0,0,0,0,0,0,0,0,0,0,0,0,0,0,0,0,0,0,0,0
773,1.9245762,-0.93238026,0.0034057903,0.26363856,-0.09096266,0.17180744,-0.29867667,8.359654,5.695058,0,0,0,0,0,0,0,0,0,0,0,0,0,0,0,0,0,0,0,0,0
774,1.9106668,-0.9363418,-0.014572153,0.061238322,-0.30934188,0.19204746,0.11312603,8.069956,5.5382376,0,0,0,0,0,0,0,0,0,0,0,0,0,0,0,0,0,0,0,0,0
775,1.9041692,-0.9386804,-0.021311888,0.16243844,-0.13037744,0.11747896,0.026934769,8.115446,5.4999304,0,0,0,0,0,0,0,0,0,0,0,0,0,0,0,0,0,0,0,0,0
776,1.8944992,-0.9476684,-0.028285794,0.33288077,0.09439335,0.1462411,0.350152,8.090307,5.5059156,0,1,0,0,0,0,0,0,0,0,0,0,0,0,0,0,0,0,0,0,0
777,1.8873792,-0.9558596,-0.0356437,0.16563424,-0.10161531,0.061019946,0.7104794,8.055591,5.6675243,0,1,0,0,0,0,0,0,0,0,0,0,0,0,0,0,0,0,0,0,0
778,1.8898236,-0.9616242,-0.039931566,0.22635432,-0.11333322,-0.09131287,0.6961141,8.427889,6.0517936,0,1,0,0,0,0,0,0,0,0,0,0,0,0,0,0,0,0,0,0,0
779,1.9001122,-0.9720081,-0.04045838,0.31796706,-0.15700905,-0.2042309,1.3940239,8.454226,5.8710313,0,1,0,0,0,0,0,0,0,0,0,0,0,0,0,0,0,0,0,0,0
780,1.9358298,-0.971345,-0.044226285,0.17309108,-0.37219247,-0.76349473,3.9725792,6.890812,6.4995093,0,1,0,0,0,0,0,0,0,0,0,0,0,0,0,0,0,0,0,0,0
781,2.0358782,-0.969389,-0.0062486664,0.4234413,-0.20492466,-2.178183,5.6964045,4.1698017,6.9065237,0,1,0,0,0,0,0,0,0,0,0,0,0,0,0,0,0,0,0,0,0
782,2.2645328,-0.96000177,0.13704,0.3989402,-0.2272952,-4.373693,4.4538136,0.8346786,3.7318122,0,1,0,0,0,0,0,0,0,0,0,0,0,0,0,0,0,0,0,0,0
783,2.603074,-0.87009853,0.3669615,-0.31159118,0.17963581,-6.397696,2.6078842,-2.9565399,1.6309003,0,1,0,0,0,0,0,0,0,0,0,0,0,0,0,0,0,0,0,0,0
784,2.7700112,-0.78893906,0.50167745,-0.6375621,1.078719,-8.019029,-4.1701007,-0.84365684,4.476409,0,1,0,0,0,0,0,0,0,0,0,0,0,0,0,0,0,0,0,0,0
785,3.0576756,-0.6115855,0.7508934,0.6311678,2.1631582,-7.8677607,-6.389526,-2.0359693,3.6887167,0,1,0,0,0,0,0,0,0,0,0,0,0,0,0,0,0,0,0,0,0
786,-3.0120075,-0.41344225,0.92181826,0.26045582,1.1362432,-7.795323,-8.793304,-2.281375,4.36867,0,1,0,0,0,0,0,0,0,0,0,0,0,0,0,0,0,0,0,0,0
787,-2.8572226,-0.2154708,1.0096116,0.9571388,1.2172034,-6.9718733,-13.233352,2.418443,4.776881,0,1,0,0,0,0,0,0,0,0,0,0,0,0,0,0,0,0,0,0,0
788,-2.731127,-0.08176915,1.0742145,1.4333119,0.84009975,-4.98409,-15.116391,1.1566987,2.9489083,0,1,0,0,0,0,0,0,0,0,0,0,0,0,0,0,0,0,0,0,0
789,-2.6987712,-0.026453823,1.0811948,0.29454428,-0.544744,-3.4234774,-15.30673,0.65152216,3.276914,0,1,0,0,0,0,0,0,0,0,0,0,0,0,0,0,0,0,0,0,0
790,-2.6487558,0.054823313,1.0639951,0.012249209,-0.7396874,-2.1888359,-14.435241,-0.47016135,3.5127428,0,1,0,0,0,0,0,0,0,0,0,0,0,0,0,0,0,0,0,0,0
791,-2.6226156,0.106933646,1.0390586,-0.1848247,-0.7631232,-1.4197149,-13.32074,-1.4039,5.1515737,0,1,0,0,0,0,0,0,0,0,0,0,0,0,0,0,0,0,0,0,0
792,-2.597055,0.13295564,1.0216038,0.2071926,-0.48402393,-0.7837521,-13.772047,-0.86999303,4.798429,0,1,0,0,0,0,0,0,0,0,0,0,0,0,0,0,0,0,0,0,0
793,-2.5840864,0.13269241,1.0083182,0.062316637,-0.580963,0.054611046,-13.391369,0.07212532,3.7868788,0,1,0,0,0,0,0,0,0,0,0,0,0,0,0,0,0,0,0,0,0
794,-2.5781188,0.12332338,1.0037031,-0.24021846,-0.5937462,0.8247972,-11.619659,-0.28461072,4.4955626,0,1,0,0,0,0,0,0,0,0,0,0,0,0,0,0,0,0,0,0,0
795,-2.595866,0.1007949,0.98491186,-0.26791534,-0.71199054,1.2008356,-9.0794115,-1.4134768,5.8399067,0,1,0,0,0,0,0,0,0,0,0,0,0,0,0,0,0,0,0,0,0
796,-2.6105652,0.07237257,0.9640535,0.062316637,-0.65127045,1.0186753,-7.4884644,-1.4876971,5.1587563,0,1,0,0,0,0,0,0,0,0,0,0,0,0,0,0,0,0,0,0,0
797,-2.6120772,0.047418218,0.95168257,0.11344933,-0.28695002,0.7449024,-7.641693,-0.4055179,4.7421656,0,1,0,0,0,0,0,0,0,0,0,0,0,0,0,0,0,0,0,0,0
798,-2.611822,0.030581223,0.95021,0.07190402,-0.036612872,0.5265232,-7.4812818,-0.71077865,4.9253216,0,1,0,0,0,0,0,0,0,0,0,0,0,0,0,0,0,0,0,0,0
799,-2.6033957,0.02521457,0.95065594,0.056990314,0.05073881,0.30068713,-8.116942,-0.055964466,5.6555533,0,1,0,0,0,0,0,0,0,0,0,0,0,0,0,0,0,0,0,0,0
800,-2.5922582,0.0133756315,0.95120907,0.2071926,-0.14100878,0.3017524,-8.483255,0.3067571,5.510704,0,1,0,0,0,0,0,0,0,0,0,0,0,0,0,0,0,0,0,0,0
801,-2.583179,4.137507E-4,0.9474159,0.16245149,-0.092006624,0.3347756,-8.564658,0.39294836,4.894197,0,1,0,0,0,0,0,0,0,0,0,0,0,0,0,0,0,0,0,0,0
802,-2.5749893,-0.012930323,0.94658196,0.11984092,-0.07070133,0.39656094,-8.605359,0.4587889,5.9895444,0,1,0,0,0,0,0,0,0,0,0,0,0,0,0,0,0,0,0,0,0
803,-2.5652044,-0.021343196,0.94462794,0.23062842,-0.21131624,0.50308734,-8.728661,0.69820905,5.5298576,0,1,0,0,0,0,0,0,0,0,0,0,0,0,0,0,0,0,0,0,0
804,-2.5505874,-0.045071203,0.9424261,0.40639704,-0.0046549393,0.74064136,-10.518327,1.9958664,5.367052,0,1,0,0,0,0,0,0,0,0,0,0,0,0,0,0,0,0,0,0,0
805,-2.543044,-0.08451804,0.94583964,0.29774007,-0.041939195,1.4660864,-10.549451,2.170643,5.2940288,0,1,0,0,0,0,0,0,0,0,0,0,0,0,0,0,0,0,0,0,0
806,-2.5456438,-0.14362375,0.9472977,0.5459467,0.33409914,2.1041799,-11.849503,3.892074,5.7405477,0,0,0,0,0,0,0,0,0,0,0,0,0,0,0,0,0,0,0,0,0
807,-2.5649474,-0.2477383,0.9724865,1.2117369,0.95940936,3.357996,-11.647193,3.4240077,7.6259813,0,0,0,0,0,0,0,0,0,0,0,0,0,0,0,0,0,0,0,0,0
808,-2.5844746,-0.31093466,0.9769183,1.2394339,-0.05791816,4.034439,-10.521918,2.4950573,6.449231,0,0,0,0,0,0,0,0,0,0,0,0,0,0,0,0,0,0,0,0,0
809,-2.649965,-0.44985983,0.9549879,1.2117369,-0.40519437,4.5372434,-10.254965,4.4307694,3.3236008,0,0,0,0,0,0,0,0,0,0,0,0,0,0,0,0,0,0,0,0,0
810,-2.7471163,-0.5973631,0.90902406,0.75367326,0.012389292,5.311691,-9.385869,4.0524855,3.8994064,0,0,0,0,0,0,0,0,0,0,0,0,0,0,0,0,0,0,0,0,0
811,-2.8884337,-0.749685,0.83371,0.6503426,0.035825107,5.736731,-7.6129627,3.2671876,3.4756327,0,0,0,0,0,0,0,0,0,0,0,0,0,0,0,0,0,0,0,0,0
812,-3.1151345,-0.89616656,0.68149555,0.16990834,0.17430948,6.678425,-7.6069775,6.002563,3.444508,0,0,0,0,0,0,0,0,0,0,0,0,0,0,0,0,0,0,0,0,0
813,3.0006206,-0.94764763,0.5437803,-0.08575512,0.26592222,7.398544,-0.9056068,-0.85682493,4.167557,0,0,0,0,0,0,0,0,0,0,0,0,0,0,0,0,0,0,0,0,0
814,2.6375687,-0.98873127,0.20281333,-1.1638027,-1.1455531,4.479719,4.742315,-1.4134768,4.8594813,0,0,0,0,0,0,0,0,0,0,0,0,0,0,0,0,0,0,0,0,0
815,2.4915361,-0.9534807,-0.0014690896,-1.010422,-1.4481164,1.6024635,4.484938,5.9008093,3.9580643,0,0,0,0,0,0,0,0,0,0,0,0,0,0,0,0,0,0,0,0,0
816,2.4270437,-0.9495461,-0.06260389,0.30837542,0.47468582,0.9206942,1.347337,9.142558,5.0282726,0,0,0,0,0,0,0,0,0,0,0,0,0,0,0,0,0,0,0,0,0
817,2.3921506,-0.9639988,-0.067730844,0.83994234,1.208653,1.032547,0.45070848,9.298182,5.3095913,0,0,0,0,0,0,0,0,0,0,0,0,0,0,0,0,0,0,0,0,0
818,2.3229566,-0.9771598,-0.09962606,-0.20827784,-0.11866646,1.1742271,1.0432734,9.085097,5.4544406,0,0,0,0,0,0,0,0,0,0,0,0,0,0,0,0,0,0,0,0,0
819,2.2562096,-0.9560724,-0.17590076,-0.607752,-0.76847774,1.125225,1.9674352,8.953417,5.096507,0,0,0,0,0,0,0,0,0,0,0,0,0,0,0,0,0,0,0,0,0
820,2.194786,-0.94491136,-0.23290251,0.20611003,0.37561622,0.9760879,2.60549,8.894758,4.74456,0,0,0,0,0,0,0,0,0,0,0,0,0,0,0,0,0,0,0,0,0
821,2.1484802,-0.95433056,-0.2518214,0.45431665,0.7729599,0.6245507,3.0771477,7.7563157,4.8774376,0,0,0,0,0,0,0,0,0,0,0,0,0,0,0,0,0,0,0,0,0
822,2.133936,-0.9569678,-0.2570805,0.016492957,0.12634435,0.19098806,2.2762873,8.673295,4.9540524,0,0,0,0,0,0,0,0,0,0,0,0,0,0,0,0,0,0,0,0,0
823,2.1138282,-0.9575054,-0.26714054,0.023949808,0.18280338,0.25703445,2.0380642,8.678083,4.1974845,0,0,0,0,0,0,0,0,0,0,0,0,0,0,0,0,0,0,0,0,0
824,2.0958796,-0.9577587,-0.27120364,0.16669524,0.6696292,0.29325345,2.5600002,7.83293,5.118055,0,0,0,0,0,0,0,0,0,0,0,0,0,0,0,0,0,0,0,0,0
825,2.0840495,-0.96319634,-0.264788,0.19545738,0.43420577,0.0045667887,2.4917655,7.5276694,4.806809,0,0,0,0,0,0,0,0,0,0,0,0,0,0,0,0,0,0,0,0,0
826,2.0784266,-0.9694838,-0.249801,0.08360462,0.49279532,-0.073197514,1.5376761,8.65893,4.181922,0,0,0,0,0,0,0,0,0,0,0,0,0,0,0,0,0,0,0,0,0
827,2.0702474,-0.97301185,-0.23961107,0.21782793,0.88907367,0.13239852,1.3377602,8.205229,4.8618755,0,0,0,0,0,0,0,0,0,0,0,0,0,0,0,0,0,0,0,0,0
828,2.0545886,-0.97893226,-0.22316885,0.0122318985,0.5002522,0.1483775,1.3652935,7.986159,4.5817537,0,0,0,0,0,0,0,0,0,0,0,0,0,0,0,0,0,0,0,0,0
