nr,fusedX,fusedY,fusedZ,gyroX,gyroY,gyroZ,accX,accY,accZ,q,w,e,r,t,z,u,i,o,p,a,s,d,f,g,h,j,k,l,y
0,-1.4884627,0.0062650614,0.022455394,-8.1572623E-4,0.0021470406,-2.663161E-4,-0.3127426,-0.016609775,9.807548,0,0,0,0,0,0,0,0,0,0,0,0,0,0,0,0,0,0,0,0,0
1,-1.4880943,0.0061516534,0.02266326,0.0013148027,1.6511598E-5,-0.0013315806,-0.32231942,-0.0058358666,9.808745,0,0,0,0,0,0,0,0,0,0,0,0,0,0,0,0,0,0,0,0,0
2,-1.487698,0.0060160724,0.022810565,-8.1572623E-4,1.6511598E-5,-0.0013315806,-0.293589,0.006135142,9.774029,0,0,0,0,0,0,0,0,0,0,0,0,0,0,0,0,0,0,0,0,0
3,-1.4870256,0.006149962,0.022801764,-0.0018809907,0.001081776,-0.0013315806,-0.28760347,1.496376E-4,9.7919855,0,0,0,0,0,0,0,0,0,0,0,0,0,0,0,0,0,0,0,0,0
4,-1.4870659,0.0060461983,0.022913095,2.495382E-4,1.6511598E-5,7.9894834E-4,-0.27802667,-0.009427169,9.797971,0,0,0,0,0,0,0,0,0,0,0,0,0,0,0,0,0,0,0,0,0
5,-1.487056,0.0059200893,0.02304116,0.0013148027,1.6511598E-5,0.0018642128,-0.28760347,0.0025438394,9.807548,0,0,0,0,0,0,0,0,0,0,0,0,0,0,0,0,0,0,0,0,0
6,-1.4871647,0.005860108,0.023185434,0.0034453315,1.6511598E-5,-2.663161E-4,-0.2959832,-0.028580783,9.780015,0,0,0,0,0,0,0,0,0,0,0,0,0,0,0,0,0,0,0,0,0
7,-1.4874884,0.005748119,0.02332516,2.495382E-4,-0.0010487528,7.9894834E-4,-0.293589,-0.016609775,9.789592,0,0,0,0,0,0,0,0,0,0,0,0,0,0,0,0,0,0,0,0,0
8,-1.4875997,0.005696341,0.023447853,2.495382E-4,0.001081776,-2.663161E-4,-0.28880057,-0.030974984,9.800365,0,0,0,0,0,0,0,0,0,0,0,0,0,0,0,0,0,0,0,0,0
9,-1.487561,0.0055698445,0.023590308,-0.0020141487,-0.0011318434,0.0019140139,-0.28520927,-0.0058358666,9.774029,0,0,0,0,0,0,0,0,0,0,0,0,0,0,0,0,0,0,0,0,0
10,-1.4875648,0.005465495,0.023702586,-9.488843E-4,-0.002197108,-2.1651499E-4,-0.28520927,-0.0034416649,9.763255,0,0,0,0,0,0,0,0,0,0,0,0,0,0,0,0,0,0,0,0,0
11,-1.4877484,0.005379491,0.023780907,1.16380135E-4,-6.657903E-5,8.487494E-4,-0.27443537,-0.020201078,9.789592,0,0,0,0,0,0,0,0,0,0,0,0,0,0,0,0,0,0,0,0,0
12,-1.4878422,0.0053302143,0.02391416,-9.488843E-4,-6.657903E-5,0.0019140139,-0.2983774,-0.028580783,9.797971,0,0,0,0,0,0,0,0,0,0,0,0,0,0,0,0,0,0,0,0,0
13,-1.4874961,0.005235485,0.024040682,0.002246909,-0.0011318434,-2.1651499E-4,-0.2971803,-0.0058358666,9.824307,0,0,0,0,0,0,0,0,0,0,0,0,0,0,0,0,0,0,0,0,0
14,-1.4872068,0.0051696296,0.024170006,1.16380135E-4,-0.0011318434,-0.0012817794,-0.2983774,-0.019003976,9.77762,0,0,0,0,0,0,0,0,0,0,0,0,0,0,0,0,0,0,0,0,0
15,-1.4868579,0.0050683776,0.024276955,-9.488843E-4,-0.0011318434,0.0019140139,-0.28880057,-0.0010474633,9.781212,0,0,0,0,0,0,0,0,0,0,0,0,0,0,0,0,0,0,0,0,0
16,-1.4868523,0.0049916315,0.024360217,1.16380135E-4,9.986854E-4,0.0019140139,-0.28281507,-0.022595279,9.812336,0,0,0,0,0,0,0,0,0,0,0,0,0,0,0,0,0,0,0,0,0
17,-1.486533,0.004908611,0.024489962,1.16380135E-4,-6.657903E-5,-0.0012817794,-0.27563247,-0.026186582,9.783606,0,0,0,0,0,0,0,0,0,0,0,0,0,0,0,0,0,0,0,0,0
18,-1.4862484,0.004844343,0.024638642,-9.488843E-4,0.0031292143,-2.1651499E-4,-0.3127426,-0.016609775,9.793182,0,0,0,0,0,0,0,0,0,0,0,0,0,0,0,0,0,0,0,0,0
19,-1.4859095,0.00474715,0.024765491,0.002246909,9.986854E-4,-2.1651499E-4,-0.3031658,1.496376E-4,9.782409,0,0,0,0,0,0,0,0,0,0,0,0,0,0,0,0,0,0,0,0,0
20,-1.4856334,0.0046763574,0.024833353,9.986854E-5,-1.6777914E-5,-0.0015646071,-0.27563247,-0.011821371,9.786,0,0,0,0,0,0,0,0,0,0,0,0,0,0,0,0,0,0,0,0,0
21,-1.4851681,0.004396719,0.02498036,9.986854E-5,-1.6777914E-5,-4.993427E-4,-0.3163339,0.01690905,9.787197,0,0,0,0,0,0,0,0,0,0,0,0,0,0,0,0,0,0,0,0,0
22,-1.4848948,0.004332915,0.025109462,9.986854E-5,-0.0010820423,-4.993427E-4,-0.2971803,-0.030974984,9.758467,0,0,0,0,0,0,0,0,0,0,0,0,0,0,0,0,0,0,0,0,0
23,-1.4847263,0.0043218047,0.025217261,9.986854E-5,-1.6777914E-5,-4.993427E-4,-0.2983774,-0.03696049,9.780015,0,0,0,0,0,0,0,0,0,0,0,0,0,0,0,0,0,0,0,0,0
24,-1.4843564,0.00419834,0.025296284,0.0022303974,0.0010484866,5.659217E-4,-0.28520927,0.01810615,9.775227,0,0,0,0,0,0,0,0,0,0,0,0,0,0,0,0,0,0,0,0,0
25,-1.4841894,0.0041283206,0.025379376,9.986854E-5,-1.6777914E-5,0.0016311861,-0.28999767,-0.014215573,9.812336,0,0,0,0,0,0,0,0,0,0,0,0,0,0,0,0,0,0,0,0,0
26,-1.4838792,0.0040430026,0.025532892,-9.653959E-4,-0.009604158,5.659217E-4,-0.32351652,0.0013467384,9.783606,0,0,0,0,0,0,0,0,0,0,0,0,0,0,0,0,0,0,0,0,0
27,-1.483606,0.003939882,0.025515683,-9.653959E-4,-1.6777914E-5,5.659217E-4,-0.24211365,0.010923545,9.811139,0,0,0,0,0,0,0,0,0,0,0,0,0,0,0,0,0,0,0,0,0
28,-1.4834176,0.0038852477,0.02552479,0.0043609263,-0.010669422,-0.0015646071,-0.25408465,-0.011821371,9.781212,0,0,0,0,0,0,0,0,0,0,0,0,0,0,0,0,0,0,0,0,0
29,-1.4831094,0.0037705773,0.025601551,0.001165133,-0.0021473067,-0.0026298715,-0.28760347,0.01810615,9.7919855,0,0,0,0,0,0,0,0,0,0,0,0,0,0,0,0,0,0,0,0,0
30,-1.4934368,0.0108835995,0.02328778,0.016078835,-0.058606323,-0.005825665,0.64254385,-3.6605847,9.304766,0,0,0,0,0,0,0,0,0,0,0,0,0,0,0,0,0,0,0,0,0
31,-1.4978675,0.013791499,0.02125934,0.020339893,-0.022387331,-0.07613312,0.73112935,-1.4758757,9.3382845,0,0,0,0,0,0,0,0,0,0,0,0,0,0,0,0,0,0,0,0,0
32,-1.4972128,0.0135249775,0.02213771,0.0043609263,0.07668226,-0.6151569,-0.64912796,-0.004638766,9.945214,0,0,0,0,0,0,0,0,0,0,0,0,0,0,0,0,0,0,0,0,0
33,-1.496492,0.013049986,0.021458676,0.09277787,-0.2269181,-0.44577986,0.13018471,0.11267712,11.019014,0,0,0,0,0,0,0,0,0,0,0,0,0,0,0,0,0,0,0,0,0
34,-1.4405915,0.014994554,-0.10899742,-0.11814448,-0.9321231,-0.6268748,0.066738375,0.0935235,8.641572,0,0,0,0,0,0,0,0,0,0,0,0,0,0,0,0,0,0,0,0,0
35,-1.4418609,0.01524379,-0.10642574,0.24937174,0.5304849,-0.6204832,-0.1774702,-0.24884734,9.05936,0,0,0,0,0,0,0,0,0,0,0,0,0,0,0,0,0,0,0,0,0
36,-1.4424633,0.015140408,-0.1039812,-0.07233811,-0.43144888,-0.36588505,-0.163105,-0.10399814,10.321104,0,0,0,0,0,0,0,0,0,0,0,0,0,0,0,0,0,0,0,0,0
37,-1.4478996,0.017948002,-0.10246191,-0.079794966,-0.32705295,-0.4873252,0.16250645,-2.0947769,10.091261,0,0,0,0,0,0,0,0,0,0,0,0,0,0,0,0,0,0,0,0,0
38,-1.3508555,0.05760826,-0.113678485,-0.32587105,-0.06073685,-0.80157816,0.8053496,-4.876839,10.346243,0,0,0,0,0,0,0,0,0,0,0,0,0,0,0,0,0,0,0,0,0
39,-1.3645629,0.06345682,-0.111156784,-0.5975135,0.25245088,-0.25722808,-0.13916297,-4.0951324,11.216536,0,0,0,0,0,0,0,0,0,0,0,0,0,0,0,0,0,0,0,0,0
40,-1.3744478,0.066784136,-0.10647633,-1.4944661,-0.3792509,-0.85590667,-1.2440871,-2.3748984,10.074501,0,0,0,0,0,0,0,0,0,0,0,0,0,0,0,0,0,0,0,0,0
41,-1.3830488,0.0712109,-0.102592915,-0.6710167,0.22688454,-0.24551016,-1.1782465,-3.6246717,10.643125,0,0,0,0,0,0,0,0,0,0,0,0,0,0,0,0,0,0,0,0,0
42,-1.4007237,0.07922524,-0.09782317,-0.12772441,0.11290498,-0.24977309,-1.1997943,-4.520103,8.77445,0,0,0,0,0,0,0,0,0,0,0,0,0,0,0,0,0,0,0,0,0
43,-1.3026565,0.09647364,-0.08762538,-0.56341755,-0.20241329,-1.2308816,-2.311901,-1.265186,9.550171,0,0,0,0,0,0,0,0,0,0,0,0,0,0,0,0,0,0,0,0,0
44,-1.299847,0.096995175,-0.08319241,-0.19909713,1.1185147,-0.18159616,-1.0968436,-1.5536872,9.826701,0,0,0,0,0,0,0,0,0,0,0,0,0,0,0,0,0,0,0,0,0
45,-1.2952212,0.09630132,-0.07980659,1.030218,-0.25354597,0.45543197,-0.8562264,-0.6211457,9.920075,0,0,0,0,0,0,0,0,0,0,0,0,0,0,0,0,0,0,0,0,0
46,-1.2945316,0.097040415,-0.076042175,0.38573304,0.17042926,-0.7259463,-0.77482355,-0.95992523,7.1188593,0,0,0,0,0,0,0,0,0,0,0,0,0,0,0,0,0,0,0,0,0
47,-1.0933521,0.28723806,-0.015932875,-1.4870018,0.6114487,-1.16377,2.4920647,0.10190321,8.393772,0,0,0,0,0,0,0,0,0,0,0,0,0,0,0,0,0,0,0,0,0
48,-1.0888785,0.2804034,-0.0148160355,-0.42280266,-2.1007144,-0.2732089,-0.4528034,0.6190508,11.339837,0,0,0,0,0,0,0,0,0,0,0,0,0,0,0,0,0,0,0,0,0
49,-1.0887573,0.27687785,-0.013222263,-0.39191,-1.5584949,-0.75577366,-0.54498017,-0.8785224,8.388984,0,0,0,0,0,0,0,0,0,0,0,0,0,0,0,0,0,0,0,0,0
50,-1.0876306,0.27220756,-0.014643404,-1.0672877,0.52942336,-1.0380688,0.8915409,-0.4595371,10.553342,0,0,0,0,0,0,0,0,0,0,0,0,0,0,0,0,0,0,0,0,0
51,-1.0818076,0.2652291,-0.015218761,0.88534206,-0.44209778,0.3286655,0.48332947,0.8560767,11.126753,0,0,0,0,0,0,0,0,0,0,0,0,0,0,0,0,0,0,0,0,0
52,-1.1600684,0.052911565,-0.19713181,1.3157089,-1.4306632,0.24557488,-1.1662755,-1.8649335,8.266879,0,0,0,0,0,0,0,0,0,0,0,0,0,0,0,0,0,0,0,0,0
53,-1.1547055,0.05005391,-0.19646737,-0.13731179,1.1238409,-0.22740252,1.4685434,2.4338558,9.718963,0,0,0,0,0,0,0,0,0,0,0,0,0,0,0,0,0,0,0,0,0
54,-1.147527,0.04343839,-0.19716159,0.46456262,1.0407503,-0.37867007,2.4429836,3.0743046,10.378565,0,0,0,0,0,0,0,0,0,0,0,0,0,0,0,0,0,0,0,0,0
55,-1.144381,0.044152275,-0.19361886,1.3679068,-0.23650175,-0.3424511,0.18405426,-0.72888476,9.189844,0,0,0,0,0,0,0,0,0,0,0,0,0,0,0,0,0,0,0,0,0
56,-1.0728045,-0.005928986,-0.093378134,0.29305506,0.75206363,-0.55550396,0.5587468,0.24675241,8.459613,0,0,0,0,0,0,0,0,0,0,0,0,0,0,0,0,0,0,0,0,0
57,-1.0673007,-0.013589737,-0.09679828,0.26855397,0.87137324,-0.7302073,2.616563,4.1038113,9.22456,0,0,0,0,0,0,0,0,0,0,0,0,0,0,0,0,0,0,0,0,0
58,-1.062927,-0.01663199,-0.09769441,0.72768295,-0.08416894,-0.8857359,1.2710218,1.5061026,8.915708,0,0,0,0,0,0,0,0,0,0,0,0,0,0,0,0,0,0,0,0,0
59,-1.0640594,-0.015200017,-0.09826897,0.12580986,-0.77339447,-1.2212945,1.0256162,-0.4475661,8.069358,0,0,0,0,0,0,0,0,0,0,0,0,0,0,0,0,0,0,0,0,0
60,-1.0611429,-0.014549496,-0.09579384,-0.58152574,-0.62212694,-1.2095766,-0.27443537,-0.18659809,10.765228,0,0,0,0,0,0,0,0,0,0,0,0,0,0,0,0,0,0,0,0,0
61,-0.94553924,-0.10541323,0.30148673,0.90558344,0.20451826,-0.45430413,0.6784569,0.6645406,0.7933786,0,0,0,0,0,0,0,0,0,0,0,0,0,0,0,0,0,0,0,0,0
62,-0.9530087,-0.10023363,0.29204088,0.07041611,0.30358785,-0.36162612,1.5655086,-1.4255974,9.076119,0,0,0,0,0,0,0,0,0,0,0,0,0,0,0,0,0,0,0,0,0
63,-0.9564697,-0.09632284,0.2859086,-0.13198413,-0.18430327,-0.4670873,0.13976152,-0.9168296,9.589676,0,0,0,0,0,0,0,0,0,0,0,0,0,0,0,0,0,0,0,0,0
64,-0.9603683,-0.09235675,0.27961975,-0.002021872,0.048989646,-0.3136892,0.27862522,-0.9994296,9.762058,0,0,0,0,0,0,0,0,0,0,0,0,0,0,0,0,0,0,0,0,0
65,-0.95251185,-0.08664706,0.2782442,0.0022391859,0.028749622,0.036782783,0.50846857,-0.4750994,9.780015,0,0,0,0,0,0,0,0,0,0,0,0,0,0,0,0,0,0,0,0,0
66,-0.9524715,-0.084839016,0.27231014,-0.004152401,0.0031832764,0.0037595844,0.18166006,-0.03696049,9.8398695,0,0,0,0,0,0,0,0,0,0,0,0,0,0,0,0,0,0,0,0,0
67,-0.9521706,-0.08311321,0.266647,0.015022359,-1.2516857E-5,-0.0015667377,0.1062427,-0.014215573,9.79438,0,0,0,0,0,0,0,0,0,0,0,0,0,0,0,0,0,0,0,0,0
68,-0.95211124,-0.081448816,0.261042,0.0033044503,-0.0064041032,5.637912E-4,0.13377602,-0.0010474633,9.833884,0,0,0,0,0,0,0,0,0,0,0,0,0,0,0,0,0,0,0,0,0
69,-0.95177835,-0.07981037,0.25554562,-0.004152401,0.002118012,0.0026943202,0.13497312,-0.004638766,9.79438,0,0,0,0,0,0,0,0,0,0,0,0,0,0,0,0,0,0,0,0,0
70,-0.95139873,-0.07816267,0.24992375,1.0865697E-4,0.0010527476,-5.014732E-4,0.11462241,-0.023792379,9.776423,0,0,0,0,0,0,0,0,0,0,0,0,0,0,0,0,0,0,0,0,0
71,-0.9510815,-0.07656055,0.24468839,0.0011739214,-0.00320831,-0.0015667377,0.11581951,-0.019003976,9.77762,0,0,0,0,0,0,0,0,0,0,0,0,0,0,0,0,0,0,0,0,0
72,-0.9508628,-0.07495618,0.23952582,0.0011739214,-1.2516857E-5,0.0016290556,0.13138182,-0.035763387,9.775227,0,0,0,0,0,0,0,0,0,0,0,0,0,0,0,0,0,0,0,0,0
73,-0.9504751,-0.073430516,0.23455045,0.0011739214,-1.2516857E-5,5.637912E-4,0.09068039,-0.013018472,9.809942,0,0,0,0,0,0,0,0,0,0,0,0,0,0,0,0,0,0,0,0,0
74,-0.94998455,-0.07190619,0.2295992,1.0865697E-4,0.0010527476,-5.014732E-4,0.13377602,-0.01062427,9.778817,0,0,0,0,0,0,0,0,0,0,0,0,0,0,0,0,0,0,0,0,0
75,-0.94971144,-0.07040469,0.2247874,-9.5660746E-4,-1.2516857E-5,5.637912E-4,0.1074398,-0.030974984,9.775227,0,0,0,0,0,0,0,0,0,0,0,0,0,0,0,0,0,0,0,0,0
76,-0.9493288,-0.06897487,0.22011352,0.0011680624,-0.0010807108,5.6512275E-4,0.087089084,-0.01062427,9.77762,0,0,0,0,0,0,0,0,0,0,0,0,0,0,0,0,0,0,0,0,0
77,-0.94898075,-0.06763485,0.21542783,1.0279802E-4,-1.5446334E-5,5.6512275E-4,0.13856442,0.019303251,9.77762,0,0,0,0,0,0,0,0,0,0,0,0,0,0,0,0,0,0,0,0,0
78,-0.94864434,-0.06631671,0.21083853,1.0279802E-4,-0.0010807108,0.0026956517,0.13736732,0.01690905,9.784803,0,0,0,0,0,0,0,0,0,0,0,0,0,0,0,0,0,0,0,0,0
79,-0.9481949,-0.064779684,0.20626868,0.0011680624,0.0010498181,0.0016303872,0.1086369,-0.021398177,9.764452,0,0,0,0,0,0,0,0,0,0,0,0,0,0,0,0,0,0,0,0,0
80,-0.9479162,-0.06346482,0.20189913,-0.0030929954,-0.0010807108,-5.0014164E-4,0.11941081,-0.009427169,9.780015,0,0,0,0,0,0,0,0,0,0,0,0,0,0,0,0,0,0,0,0,0
81,-0.9475989,-0.06219583,0.1976283,-9.624664E-4,-0.0010807108,-0.0015654061,0.11342531,1.496376E-4,9.741708,0,0,0,0,0,0,0,0,0,0,0,0,0,0,0,0,0,0,0,0,0
82,-0.9472795,-0.06095466,0.19344683,0.002233327,0.0010498181,0.0026956517,0.11222821,0.0013467384,9.805154,0,0,0,0,0,0,0,0,0,0,0,0,0,0,0,0,0,0,0,0,0
83,-0.9464759,-0.059716932,0.18921351,1.0279802E-4,-0.0010807108,5.6512275E-4,0.11462241,0.0037409402,9.766847,0,0,0,0,0,0,0,0,0,0,0,0,0,0,0,0,0,0,0,0,0
84,-0.94589406,-0.058518004,0.18521205,8.309063E-5,2.495382E-4,-3.4967304E-4,0.1062427,-0.002244564,9.782409,0,0,0,0,0,0,0,0,0,0,0,0,0,0,0,0,0,0,0,0,0
85,-0.94543755,-0.057313584,0.18123348,8.309063E-5,2.495382E-4,-3.4967304E-4,0.13377602,-0.016609775,9.752481,0,0,0,0,0,0,0,0,0,0,0,0,0,0,0,0,0,0,0,0,0
86,-0.94483656,-0.05620926,0.17736448,0.0022136194,2.495382E-4,-0.002480202,0.11941081,0.020500353,9.774029,0,0,0,0,0,0,0,0,0,0,0,0,0,0,0,0,0,0,0,0,0
87,-0.9443816,-0.055073097,0.17353036,0.0011483551,0.0013148027,7.1559136E-4,0.13976152,-0.0058358666,9.744102,0,0,0,0,0,0,0,0,0,0,0,0,0,0,0,0,0,0,0,0,0
88,-0.9439046,-0.05392578,0.16998608,8.309063E-5,2.495382E-4,-0.0014149374,0.12180501,-0.023792379,9.775227,0,0,0,0,0,0,0,0,0,0,0,0,0,0,0,0,0,0,0,0,0
89,-0.94331515,-0.052864682,0.16639139,8.309063E-5,2.495382E-4,-3.4967304E-4,0.09546879,0.008529344,9.7919855,0,0,0,0,0,0,0,0,0,0,0,0,0,0,0,0,0,0,0,0,0
90,-0.9430156,-0.051834628,0.16286092,8.309063E-5,-8.1572623E-4,-3.4967304E-4,0.099060096,0.013317747,9.77762,0,0,0,0,0,0,0,0,0,0,0,0,0,0,0,0,0,0,0,0,0
91,-0.94295186,-0.050724562,0.15934396,0.0011483551,-8.1572623E-4,0.0017808558,0.12659341,-0.035763387,9.747693,0,0,0,0,0,0,0,0,0,0,0,0,0,0,0,0,0,0,0,0,0
92,-0.9428293,-0.0498769,0.15593225,-9.821738E-4,0.002380067,7.1559136E-4,0.12419921,0.0013467384,9.772832,0,0,0,0,0,0,0,0,0,0,0,0,0,0,0,0,0,0,0,0,0
93,-0.9426294,-0.048894376,0.15255196,0.0022136194,2.495382E-4,7.1559136E-4,0.12779051,0.0073322426,9.7680435,0,0,0,0,0,0,0,0,0,0,0,0,0,0,0,0,0,0,0,0,0
94,-0.94245464,-0.0478824,0.14928778,0.0018309233,-0.002130529,0.0018807243,0.1038485,-0.016609775,9.744102,0,0,0,0,0,0,0,0,0,0,0,0,0,0,0,0,0,0,0,0,0
95,-0.94222236,-0.046937317,0.14607716,-0.00136487,0.0,-2.4980452E-4,0.109834,0.006135142,9.7680435,0,0,0,0,0,0,0,0,0,0,0,0,0,0,0,0,0,0,0,0,0
96,-0.9421217,-0.045976862,0.14287004,0.0018309233,0.0010652645,8.1545993E-4,0.13976152,-0.01062427,9.787197,0,0,0,0,0,0,0,0,0,0,0,0,0,0,0,0,0,0,0,0,0
97,-0.9420196,-0.044826258,0.13976122,-2.9960563E-4,0.0,-0.0013150689,0.12300211,-0.023792379,9.771635,0,0,0,0,0,0,0,0,0,0,0,0,0,0,0,0,0,0,0,0,0
98,-0.9418724,-0.04387856,0.13676314,-2.9960563E-4,0.0,0.0018807243,0.099060096,-0.02498948,9.76565,0,0,0,0,0,0,0,0,0,0,0,0,0,0,0,0,0,0,0,0,0
99,-0.9417111,-0.042976767,0.13380282,-2.9960563E-4,-0.0010652645,-0.0013150689,0.109834,-0.011821371,9.759664,0,0,0,0,0,0,0,0,0,0,0,0,0,0,0,0,0,0,0,0,0
100,-0.9415426,-0.042095505,0.13090707,-2.9960563E-4,-0.002130529,8.1545993E-4,0.1074398,-0.01062427,9.780015,0,0,0,0,0,0,0,0,0,0,0,0,0,0,0,0,0,0,0,0,0
101,-0.941276,-0.04115081,0.1280479,0.0018309233,0.002130529,-2.4980452E-4,0.12180501,-0.020201078,9.820716,0,0,0,0,0,0,0,0,0,0,0,0,0,0,0,0,0,0,0,0,0
102,-0.9410883,-0.040345233,0.12523787,-2.9960563E-4,-0.0010652645,-0.0013150689,0.12180501,0.008529344,9.780015,0,0,0,0,0,0,0,0,0,0,0,0,0,0,0,0,0,0,0,0,0
103,-0.9408638,-0.039577726,0.122486934,-2.9960563E-4,-0.002130529,8.1545993E-4,0.12060791,0.019303251,9.797971,0,0,0,0,0,0,0,0,0,0,0,0,0,0,0,0,0,0,0,0,0
104,-0.94079125,-0.03868123,0.11986157,-0.003495399,-0.0010652645,0.0018807243,0.085891984,-0.051325697,9.781212,0,0,0,0,0,0,0,0,0,0,0,0,0,0,0,0,0,0,0,0,0
105,-0.9406663,-0.037890725,0.11721448,-0.0023137543,-0.0050932956,-0.0035787558,0.12180501,-0.008230069,9.74889,0,0,0,0,0,0,0,0,0,0,0,0,0,0,0,0,0,0,0,0,0
106,-0.9403147,-0.036989592,0.11406777,-0.0023137543,-0.0018975022,-0.001448227,0.13617022,0.020500353,9.759664,0,0,0,0,0,0,0,0,0,0,0,0,0,0,0,0,0,0,0,0,0
107,-0.9401848,-0.036279477,0.11148598,-0.0023137543,2.330266E-4,-3.8296255E-4,0.14694414,0.014514848,9.781212,0,0,0,0,0,0,0,0,0,0,0,0,0,0,0,0,0,0,0,0,0
108,-0.9400262,-0.035554193,0.109022036,-1.8322548E-4,0.0023635554,6.823019E-4,0.11462241,1.496376E-4,9.787197,0,0,0,0,0,0,0,0,0,0,0,0,0,0,0,0,0,0,0,0,0
109,-0.93999743,-0.034767643,0.10660266,-1.8322548E-4,2.330266E-4,-3.8296255E-4,0.117016606,-0.03696049,9.79438,0,0,0,0,0,0,0,0,0,0,0,0,0,0,0,0,0,0,0,0,0
110,-0.93978405,-0.03420218,0.1043797,-0.00124849,0.001298291,-3.8296255E-4,0.12898761,0.009726444,9.776423,0,0,0,0,0,0,0,0,0,0,0,0,0,0,0,0,0,0,0,0,0
111,-0.9395725,-0.033577193,0.102030784,-0.00124849,0.0034288198,0.0017475663,0.12779051,0.028880058,9.780015,0,0,0,0,0,0,0,0,0,0,0,0,0,0,0,0,0,0,0,0,0
112,-0.9395457,-0.032856874,0.09972081,8.8203896E-4,-8.322378E-4,-3.8296255E-4,0.13138182,-0.023792379,9.754875,0,0,0,0,0,0,0,0,0,0,0,0,0,0,0,0,0,0,0,0,0
113,-0.93943006,-0.032168277,0.09750953,-0.0023137543,2.330266E-4,-3.8296255E-4,0.1062427,-0.015412673,9.797971,0,0,0,0,0,0,0,0,0,0,0,0,0,0,0,0,0,0,0,0,0
114,-0.93921846,-0.0317581,0.09551545,0.0019473034,0.001298291,-3.8296255E-4,0.1062427,-0.008230069,9.787197,0,0,0,0,0,0,0,0,0,0,0,0,0,0,0,0,0,0,0,0,0
115,-0.93922246,-0.031076724,0.09331194,8.8203896E-4,-8.322378E-4,-3.8296255E-4,0.14335282,-0.022595279,9.77762,0,0,0,0,0,0,0,0,0,0,0,0,0,0,0,0,0,0,0,0,0
116,-0.93909067,-0.030465279,0.091191955,1.9973709E-4,-9.653959E-4,-6.657903E-5,0.12419921,0.004938041,9.788394,0,0,0,0,0,0,0,0,0,0,0,0,0,0,0,0,0,0,0,0,0
117,-0.9389838,-0.029841574,0.08912851,1.9973709E-4,-9.653959E-4,9.986854E-4,0.117016606,-0.0070329676,9.766847,0,0,0,0,0,0,0,0,0,0,0,0,0,0,0,0,0,0,0,0,0
118,-0.9387998,-0.029281745,0.08710436,1.9973709E-4,0.001165133,-6.657903E-5,0.118213706,0.01810615,9.786,0,0,0,0,0,0,0,0,0,0,0,0,0,0,0,0,0,0,0,0,0
119,-0.93862444,-0.028907968,0.08509737,-8.6552737E-4,9.986854E-5,-0.0011318434,0.13617022,0.022894554,9.770438,0,0,0,0,0,0,0,0,0,0,0,0,0,0,0,0,0,0,0,0,0
120,-0.938618,-0.028254332,0.083161354,-8.6552737E-4,9.986854E-5,9.986854E-4,0.11462241,-0.03696049,9.793182,0,0,0,0,0,0,0,0,0,0,0,0,0,0,0,0,0,0,0,0,0
121,-0.9385293,-0.027647827,0.08128765,-8.6552737E-4,0.001165133,9.986854E-4,0.102651395,-0.020201078,9.753678,0,0,0,0,0,0,0,0,0,0,0,0,0,0,0,0,0,0,0,0,0
122,-0.93841654,-0.027078062,0.07944003,-0.0019307918,0.001165133,0.0031292143,0.1086369,-0.008230069,9.7919855,0,0,0,0,0,0,0,0,0,0,0,0,0,0,0,0,0,0,0,0,0
123,-0.9384214,-0.026660316,0.07769933,0.0012650015,0.001165133,-6.657903E-5,0.14933833,-0.020201078,9.7680435,0,0,0,0,0,0,0,0,0,0,0,0,0,0,0,0,0,0,0,0,0
124,-0.93844354,-0.026061397,0.07587699,0.002330266,0.001165133,-6.657903E-5,0.13138182,-0.032172084,9.790789,0,0,0,0,0,0,0,0,0,0,0,0,0,0,0,0,0,0,0,0,0
125,-0.9382438,-0.025557643,0.07416632,0.0012650015,9.986854E-5,-0.0011318434,0.09427169,0.008529344,9.762058,0,0,0,0,0,0,0,0,0,0,0,0,0,0,0,0,0,0,0,0,0
126,-0.93817735,-0.024988089,0.072483025,-0.0031957934,-0.0011318434,-2.1651499E-4,0.097862996,-0.028580783,9.787197,0,0,0,0,0,0,0,0,0,0,0,0,0,0,0,0,0,0,0,0,0
127,-0.9381303,-0.024451796,0.070788376,0.0,-6.657903E-5,-2.1651499E-4,0.11941081,-0.017806875,9.747693,0,0,0,0,0,0,0,0,0,0,0,0,0,0,0,0,0,0,0,0,0
128,-0.93795073,-0.023995347,0.06883262,0.0,-0.002197108,0.0019140139,0.12300211,0.01690905,9.774029,0,0,0,0,0,0,0,0,0,0,0,0,0,0,0,0,0,0,0,0,0
129,-0.937869,-0.023520632,0.06718779,0.0010652645,-6.657903E-5,-0.0012817794,0.13138182,0.0025438394,9.797971,0,0,0,0,0,0,0,0,0,0,0,0,0,0,0,0,0,0,0,0,0
130,-0.9378486,-0.023011312,0.06558485,-0.0010652645,-0.0011318434,-2.1651499E-4,0.12659341,-0.019003976,9.7680435,0,0,0,0,0,0,0,0,0,0,0,0,0,0,0,0,0,0,0,0,0
131,-0.9377882,-0.0225245,0.06403175,-0.0010652645,-6.657903E-5,8.487494E-4,0.118213706,-0.013018472,9.793182,0,0,0,0,0,0,0,0,0,0,0,0,0,0,0,0,0,0,0,0,0
132,-0.937403,-0.022105208,0.062545694,0.0,-6.657903E-5,-0.0012817794,0.097862996,0.020500353,9.764452,0,0,0,0,0,0,0,0,0,0,0,0,0,0,0,0,0,0,0,0,0
133,-0.93741953,-0.021619327,0.061018646,0.0,-6.657903E-5,0.0019140139,0.13497312,-0.021398177,9.775227,0,0,0,0,0,0,0,0,0,0,0,0,0,0,0,0,0,0,0,0,0
134,-0.9373633,-0.02113089,0.059600405,0.0010652645,0.0020639498,8.487494E-4,0.0966659,-0.027383681,9.770438,0,0,0,0,0,0,0,0,0,0,0,0,0,0,0,0,0,0,0,0,0
135,-0.9370324,-0.02068171,0.058162313,0.0010652645,9.986854E-4,-2.1651499E-4,0.12060791,-0.013018472,9.801562,0,0,0,0,0,0,0,0,0,0,0,0,0,0,0,0,0,0,0,0,0
136,-0.93667585,-0.020258607,0.05675772,0.0010652645,-0.0011318434,8.487494E-4,0.118213706,-0.004638766,9.795577,0,0,0,0,0,0,0,0,0,0,0,0,0,0,0,0,0,0,0,0,0
137,-0.93611854,-0.020126406,0.055520117,-2.9960563E-4,0.001298291,-0.0012650015,0.11581951,0.0013467384,9.750087,0,0,0,0,0,0,0,0,0,0,0,0,0,0,0,0,0,0,0,0,0
138,-0.93576866,-0.019741368,0.05414279,-2.9960563E-4,-0.0018975022,0.0019307918,0.13018471,0.008529344,9.753678,0,0,0,0,0,0,0,0,0,0,0,0,0,0,0,0,0,0,0,0,0
139,-0.93551207,-0.019287983,0.052820176,0.0018309233,2.330266E-4,-1.9973709E-4,0.117016606,-0.028580783,9.760861,0,0,0,0,0,0,0,0,0,0,0,0,0,0,0,0,0,0,0,0,0
140,-0.93515635,-0.018848596,0.051605035,-2.9960563E-4,0.001298291,-0.0012650015,0.07751228,-0.026186582,9.76565,0,0,0,0,0,0,0,0,0,0,0,0,0,0,0,0,0,0,0,0,0
141,-0.93481636,-0.01846782,0.050283175,-2.9960563E-4,-8.322378E-4,-1.9973709E-4,0.087089084,0.014514848,9.778817,0,0,0,0,0,0,0,0,0,0,0,0,0,0,0,0,0,0,0,0,0
142,-0.93448067,-0.018120755,0.049014267,7.656588E-4,2.330266E-4,8.6552737E-4,0.12898761,0.010923545,9.799169,0,0,0,0,0,0,0,0,0,0,0,0,0,0,0,0,0,0,0,0,0
143,-0.9342542,-0.01773412,0.047745183,-0.00136487,2.330266E-4,8.6552737E-4,0.14095862,-0.011821371,9.760861,0,0,0,0,0,0,0,0,0,0,0,0,0,0,0,0,0,0,0,0,0
144,-0.9340061,-0.017369946,0.046504278,-2.9960563E-4,0.001298291,-0.0012650015,0.13976152,-0.004638766,9.772832,0,0,0,0,0,0,0,0,0,0,0,0,0,0,0,0,0,0,0,0,0
145,-0.9336994,-0.017020404,0.04533216,-0.0024301345,2.330266E-4,8.6552737E-4,0.118213706,-0.0010474633,9.7680435,0,0,0,0,0,0,0,0,0,0,0,0,0,0,0,0,0,0,0,0,0
146,-0.93350255,-0.016399262,0.044101235,-0.00136487,-8.322378E-4,8.6552737E-4,0.1050456,-0.048931498,9.76565,0,0,0,0,0,0,0,0,0,0,0,0,0,0,0,0,0,0,0,0,0
147,-0.93315375,-0.016125541,0.04294758,-0.00136487,2.330266E-4,-1.9973709E-4,0.13257892,0.026485857,9.760861,0,0,0,0,0,0,0,0,0,0,0,0,0,0,0,0,0,0,0,0,0
148,-0.93280876,-0.015847333,0.041832585,9.986854E-4,-9.821738E-4,0.001980593,0.12539631,0.021697452,9.79438,0,0,0,0,0,0,0,0,0,0,0,0,0,0,0,0,0,0,0,0,0
149,-0.9326476,-0.015417716,0.040797602,9.986854E-4,8.309063E-5,-1.4993596E-4,0.0966659,-0.054917,9.747693,0,0,0,0,0,0,0,0,0,0,0,0,0,0,0,0,0,0,0,0,0
150,-0.93213713,-0.01524421,0.039652273,9.986854E-4,0.0022136194,-1.4993596E-4,0.099060096,0.004938041,9.771635,0,0,0,0,0,0,0,0,0,0,0,0,0,0,0,0,0,0,0,0,0
151,-0.9319301,-0.014900514,0.038612902,9.986854E-4,8.309063E-5,-1.4993596E-4,0.12060791,-0.019003976,9.7919855,0,0,0,0,0,0,0,0,0,0,0,0,0,0,0,0,0,0,0,0,0
152,-0.931652,-0.014641931,0.03755517,-0.0011318434,-9.821738E-4,-0.0012152004,0.13976152,0.019303251,9.790789,0,0,0,0,0,0,0,0,0,0,0,0,0,0,0,0,0,0,0,0,0
153,-0.93127334,-0.014417914,0.03656976,-0.0011318434,8.309063E-5,9.1532845E-4,0.11462241,0.033668462,9.783606,0,0,0,0,0,0,0,0,0,0,0,0,0,0,0,0,0,0,0,0,0
154,-0.9310907,-0.014046307,0.03564483,9.986854E-4,0.0011483551,-1.4993596E-4,0.09427169,-0.040551793,9.741708,0,0,0,0,0,0,0,0,0,0,0,0,0,0,0,0,0,0,0,0,0
155,-0.93088615,-0.013775905,0.03474117,-6.657903E-5,0.0011483551,-0.0012152004,0.097862996,0.0073322426,9.786,0,0,0,0,0,0,0,0,0,0,0,0,0,0,0,0,0,0,0,0,0
156,-0.9306748,-0.013493361,0.033783037,0.0020639498,8.309063E-5,-1.4993596E-4,0.12898761,-0.0034416649,9.796774,0,0,0,0,0,0,0,0,0,0,0,0,0,0,0,0,0,0,0,0,0
157,-0.93056345,-0.013187035,0.032801595,9.986854E-4,8.309063E-5,0.001980593,0.14933833,-0.017806875,9.766847,0,0,0,0,0,0,0,0,0,0,0,0,0,0,0,0,0,0,0,0,0
158,-0.93032986,-0.0129236,0.03189682,8.322378E-4,0.001081776,-0.002546781,0.12180501,1.496376E-4,9.793182,0,0,0,0,0,0,0,0,0,0,0,0,0,0,0,0,0,0,0,0,0
159,-0.92974174,-0.012589942,0.030802406,-0.0023635554,-0.0031792817,-0.0014815165,0.08948329,-0.016609775,9.79438,0,0,0,0,0,0,0,0,0,0,0,0,0,0,0,0,0,0,0,0,0
160,-0.92958796,-0.012309078,0.029922627,-2.330266E-4,-0.0031792817,-0.0014815165,0.12898761,-0.014215573,9.781212,0,0,0,0,0,0,0,0,0,0,0,0,0,0,0,0,0,0,0,0,0
161,-0.92942023,-0.012095035,0.028994208,0.0018975022,0.001081776,-4.1625206E-4,0.16130935,0.015711948,9.776423,0,0,0,0,0,0,0,0,0,0,0,0,0,0,0,0,0,0,0,0,0
162,-0.9292154,-0.011841164,0.028176758,-2.330266E-4,1.6511598E-5,0.0017142767,0.11581951,-0.0058358666,9.750087,0,0,0,0,0,0,0,0,0,0,0,0,0,0,0,0,0,0,0,0,0
163,-0.92906517,-0.011558012,0.027378203,-2.330266E-4,-0.0010487528,-4.1625206E-4,0.11462241,-0.022595279,9.753678,0,0,0,0,0,0,0,0,0,0,0,0,0,0,0,0,0,0,0,0,0
164,-0.92901975,-0.011402153,0.026430104,-2.330266E-4,1.6511598E-5,6.4901233E-4,0.12779051,-0.017806875,9.7680435,0,0,0,0,0,0,0,0,0,0,0,0,0,0,0,0,0,0,0,0,0
165,-0.92883575,-0.011147509,0.02567462,-2.330266E-4,-0.0010487528,6.4901233E-4,0.1110311,-0.013018472,9.787197,0,0,0,0,0,0,0,0,0,0,0,0,0,0,0,0,0,0,0,0,0
166,-0.928682,-0.010929766,0.024870157,-2.330266E-4,-0.0010487528,6.4901233E-4,0.14215572,0.0025438394,9.770438,0,0,0,0,0,0,0,0,0,0,0,0,0,0,0,0,0,0,0,0,0
167,-0.92862105,-0.010645586,0.024100037,0.0029627667,-0.0010487528,-4.1625206E-4,0.13377602,-0.032172084,9.809942,0,0,0,0,0,0,0,0,0,0,0,0,0,0,0,0,0,0,0,0,0
168,-0.92839664,-0.010376504,0.023663891,-2.330266E-4,-0.0010487528,6.4901233E-4,0.11581951,-0.011821371,9.7680435,0,0,0,0,0,0,0,0,0,0,0,0,0,0,0,0,0,0,0,0,0
169,-0.92816234,-0.0101619465,0.022988364,-4.3276369E-4,1.16380135E-4,-1.6777914E-5,0.099060096,-0.0034416649,9.795577,0,0,0,0,0,0,0,0,0,0,0,0,0,0,0,0,0,0,0,0,0
170,-0.9280443,-0.009905081,0.022293864,-0.001498028,-0.0041446774,0.0010484866,0.11462241,-0.026186582,9.76565,0,0,0,0,0,0,0,0,0,0,0,0,0,0,0,0,0,0,0,0,0
171,-0.92790043,-0.009704835,0.021569131,-0.001498028,-0.0020141487,0.0031790154,0.13617022,-0.0010474633,9.76565,0,0,0,0,0,0,0,0,0,0,0,0,0,0,0,0,0,0,0,0,0
172,-0.92771405,-0.009511043,0.020894073,-4.3276369E-4,0.002246909,-1.6777914E-5,0.11941081,1.496376E-4,9.800365,0,0,0,0,0,0,0,0,0,0,0,0,0,0,0,0,0,0,0,0,0
173,-0.9275805,-0.009202892,0.020566452,6.3250074E-4,0.0033121735,-1.6777914E-5,0.100257196,-0.029777884,9.766847,0,0,0,0,0,0,0,0,0,0,0,0,0,0,0,0,0,0,0,0,0
174,-0.9274113,-0.009014249,0.019908708,-0.001498028,0.0011816446,0.0010484866,0.12060791,-0.002244564,9.788394,0,0,0,0,0,0,0,0,0,0,0,0,0,0,0,0,0,0,0,0,0
175,-0.9272076,-0.008846513,0.019273639,6.3250074E-4,0.002246909,-0.0010820423,0.11581951,0.006135142,9.77762,0,0,0,0,0,0,0,0,0,0,0,0,0,0,0,0,0,0,0,0,0
176,-0.92702454,-0.008682094,0.018637346,-0.001498028,-0.0020141487,0.0010484866,0.12300211,0.006135142,9.807548,0,0,0,0,0,0,0,0,0,0,0,0,0,0,0,0,0,0,0,0,0
177,-0.9274275,-0.00824832,0.01800062,-0.001498028,-9.488843E-4,-1.6777914E-5,0.13617022,-0.032172084,9.793182,0,0,0,0,0,0,0,0,0,0,0,0,0,0,0,0,0,0,0,0,0
178,-0.9275428,-0.00806653,0.017413644,0.0016977652,0.002246909,-0.0021473067,0.1110311,-0.008230069,9.783606,0,0,0,0,0,0,0,0,0,0,0,0,0,0,0,0,0,0,0,0,0
179,-0.9276164,-0.007907958,0.016845373,-0.001498028,0.0011816446,-1.6777914E-5,0.1074398,0.0013467384,9.766847,0,0,0,0,0,0,0,0,0,0,0,0,0,0,0,0,0,0,0,0,0
180,-0.92778254,-0.007713369,0.016261715,-1.4993596E-4,-0.0015148061,9.1532845E-4,0.12060791,-0.017806875,9.775227,0,0,0,0,0,0,0,0,0,0,0,0,0,0,0,0,0,0,0,0,0
181,-0.9278542,-0.0075471625,0.01573381,-1.4993596E-4,-4.4954158E-4,0.001980593,0.099060096,-0.0058358666,9.775227,0,0,0,0,0,0,0,0,0,0,0,0,0,0,0,0,0,0,0,0,0
182,-0.92808735,-0.0072557484,0.015082813,-1.4993596E-4,6.1572285E-4,-1.4993596E-4,0.13497312,0.008529344,9.770438,0,0,0,0,0,0,0,0,0,0,0,0,0,0,0,0,0,0,0,0,0
183,-0.9281773,-0.0071404334,0.014501578,-0.0012152004,0.0016809873,-0.0012152004,0.13617022,0.014514848,9.74051,0,0,0,0,0,0,0,0,0,0,0,0,0,0,0,0,0,0,0,0,0
184,-0.9282458,-0.0070297173,0.01394563,9.1532845E-4,-4.4954158E-4,-1.4993596E-4,0.13018471,0.015711948,9.790789,0,0,0,0,0,0,0,0,0,0,0,0,0,0,0,0,0,0,0,0,0
185,-0.9283035,-0.006923673,0.013405594,-0.0012152004,0.0016809873,9.1532845E-4,0.12779051,0.01690905,9.787197,0,0,0,0,0,0,0,0,0,0,0,0,0,0,0,0,0,0,0,0,0
186,-0.9286347,-0.006403926,0.012988021,-0.0022804649,6.1572285E-4,0.001980593,0.11222821,-0.040551793,9.775227,0,0,0,0,0,0,0,0,0,0,0,0,0,0,0,0,0,0,0,0,0
187,-0.92875713,-0.006232129,0.012511191,-1.4993596E-4,6.1572285E-4,-0.0012152004,0.1062427,-0.021398177,9.788394,0,0,0,0,0,0,0,0,0,0,0,0,0,0,0,0,0,0,0,0,0
188,-0.9288588,-0.0061077923,0.011999812,-0.0012152004,-0.0015148061,-0.0022804649,0.12779051,1.496376E-4,9.786,0,0,0,0,0,0,0,0,0,0,0,0,0,0,0,0,0,0,0,0,0
189,-0.9289378,-0.005993272,0.011506311,-1.4993596E-4,-4.4954158E-4,-0.0012152004,0.12419921,0.0037409402,9.797971,0,0,0,0,0,0,0,0,0,0,0,0,0,0,0,0,0,0,0,0,0
190,-0.92934316,-0.0059299567,0.011332052,3.9947417E-4,0.0023635554,8.1545993E-4,0.12419921,0.0013467384,9.764452,0,0,0,0,0,0,0,0,0,0,0,0,0,0,0,0,0,0,0,0,0
191,-0.92974234,-0.0057406933,0.010858842,-6.657903E-4,0.001298291,-0.0013150689,0.12060791,-0.034566287,9.782409,0,0,0,0,0,0,0,0,0,0,0,0,0,0,0,0,0,0,0,0,0
192,-0.9299676,-0.005596799,0.01048065,-0.0017310547,-0.0018975022,-0.0013150689,0.07870938,-0.014215573,9.776423,0,0,0,0,0,0,0,0,0,0,0,0,0,0,0,0,0,0,0,0,0
193,-0.9303887,-0.0053895744,0.010028978,3.9947417E-4,2.330266E-4,0.0018807243,0.118213706,-0.046537295,9.766847,0,0,0,0,0,0,0,0,0,0,0,0,0,0,0,0,0,0,0,0,0
194,-0.9306838,-0.005277193,0.009562155,0.0014647386,-0.0029627667,8.1545993E-4,0.13018471,-0.002244564,9.778817,0,0,0,0,0,0,0,0,0,0,0,0,0,0,0,0,0,0,0,0,0
195,-0.93087167,-0.0051207207,0.008858249,3.9947417E-4,0.0023635554,-2.4980452E-4,0.12898761,0.01810615,9.799169,0,0,0,0,0,0,0,0,0,0,0,0,0,0,0,0,0,0,0,0,0
196,-0.93112576,-0.0050332886,0.008415069,-6.657903E-4,-8.322378E-4,0.0018807243,0.13018471,0.0073322426,9.787197,0,0,0,0,0,0,0,0,0,0,0,0,0,0,0,0,0,0,0,0,0
197,-0.9313071,-0.0049402663,0.008049263,3.9947417E-4,2.330266E-4,8.1545993E-4,0.0966659,0.0037409402,9.788394,0,0,0,0,0,0,0,0,0,0,0,0,0,0,0,0,0,0,0,0,0
198,-0.93156433,-0.0047904723,0.0077008083,3.9947417E-4,2.330266E-4,-2.4980452E-4,0.09187749,-0.02498948,9.801562,0,0,0,0,0,0,0,0,0,0,0,0,0,0,0,0,0,0,0,0,0
199,-0.9312853,-0.0048754355,0.0071994592,0.0014647386,-8.322378E-4,-0.0023803334,0.117016606,-0.004638766,9.775227,0,0,0,0,0,0,0,0,0,0,0,0,0,0,0,0,0,0,0,0,0
200,-0.93130744,-0.004785566,0.006809173,3.9947417E-4,-0.0018975022,8.1545993E-4,0.12060791,0.0037409402,9.793182,0,0,0,0,0,0,0,0,0,0,0,0,0,0,0,0,0,0,0,0,0
201,-0.93133336,-0.004714624,0.0064020506,6.657903E-5,-0.0020807278,5.9921126E-4,0.13257892,0.012120646,9.786,0,0,0,0,0,0,0,0,0,0,0,0,0,0,0,0,0,0,0,0,0
202,-0.93138516,-0.004625545,0.0060072117,6.657903E-5,0.0011150655,-0.0015313176,0.13018471,0.0025438394,9.758467,0,0,0,0,0,0,0,0,0,0,0,0,0,0,0,0,0,0,0,0,0
203,-0.9313839,-0.004535789,0.0056672823,-9.986854E-4,0.0011150655,5.9921126E-4,0.1074398,0.0013467384,9.776423,0,0,0,0,0,0,0,0,0,0,0,0,0,0,0,0,0,0,0,0,0
204,-0.93164515,-0.004300523,0.0051868474,0.0011318434,0.0011150655,-4.660532E-4,0.11342531,-0.0070329676,9.754875,0,0,0,0,0,0,0,0,0,0,0,0,0,0,0,0,0,0,0,0,0
205,-0.9317301,-0.0041731843,0.0048461566,0.0011318434,4.980111E-5,-4.660532E-4,0.11581951,-0.020201078,9.775227,0,0,0,0,0,0,0,0,0,0,0,0,0,0,0,0,0,0,0,0,0
206,-0.93176717,-0.004075329,0.0045146705,0.0011318434,4.980111E-5,5.9921126E-4,0.11462241,-0.0070329676,9.772832,0,0,0,0,0,0,0,0,0,0,0,0,0,0,0,0,0,0,0,0,0
207,-0.931816,-0.00400144,0.004149521,0.0011318434,4.980111E-5,5.9921126E-4,0.13497312,0.0037409402,9.820716,0,0,0,0,0,0,0,0,0,0,0,0,0,0,0,0,0,0,0,0,0
208,-0.9320954,-0.0036060007,0.0037977847,-0.0020639498,4.980111E-5,-4.660532E-4,0.13497312,-0.021398177,9.796774,0,0,0,0,0,0,0,0,0,0,0,0,0,0,0,0,0,0,0,0,0
209,-0.9322445,-0.0035317396,0.003548697,-9.986854E-4,-0.0010154633,-4.660532E-4,0.084694885,-0.0010474633,9.783606,0,0,0,0,0,0,0,0,0,0,0,0,0,0,0,0,0,0,0,0,0
210,-0.93252623,-0.0034195783,0.0032420931,6.657903E-5,4.980111E-5,-4.660532E-4,0.11462241,-0.020201078,9.728539,0,0,0,0,0,0,0,0,0,0,0,0,0,0,0,0,0,0,0,0,0
211,-0.9328856,-0.0033612684,0.0027965726,0.002197108,-0.0010154633,-4.660532E-4,0.18644845,0.004938041,9.79438,0,0,0,0,0,0,0,0,0,0,0,0,0,0,0,0,0,0,0,0,0
212,-0.9330833,-0.0033139247,0.002481869,-1.8322548E-4,0.001980593,-4.1625206E-4,0.12659341,0.009726444,9.783606,0,0,0,0,0,0,0,0,0,0,0,0,0,0,0,0,0,0,0,0,0
213,-0.9328662,-0.0030240973,0.0022567187,-1.8322548E-4,-1.4993596E-4,-0.0014815165,0.07631518,0.039653964,9.758467,0,0,0,0,0,0,0,0,0,0,0,0,0,0,0,0,0,0,0,0,0
214,-0.93315566,-0.002875602,0.0020232874,-0.00124849,-0.0012152004,-0.002546781,0.09187749,-0.042945992,9.758467,0,0,0,0,0,0,0,0,0,0,0,0,0,0,0,0,0,0,0,0,0
215,-0.9331806,-0.0027302932,0.0017705127,-0.00124849,-0.0022804649,6.4901233E-4,0.1038485,-0.042945992,9.782409,0,0,0,0,0,0,0,0,0,0,0,0,0,0,0,0,0,0,0,0,0
216,-0.9329568,-0.002754577,0.0015122417,8.8203896E-4,0.001980593,-4.1625206E-4,0.1086369,0.038456865,9.74889,0,0,0,0,0,0,0,0,0,0,0,0,0,0,0,0,0,0,0,0,0
217,-0.9329246,-0.002547906,0.0012405184,-1.8322548E-4,-0.0022804649,-4.1625206E-4,0.1086369,0.006135142,9.807548,0,0,0,0,0,0,0,0,0,0,0,0,0,0,0,0,0,0,0,0,0
218,-0.93298936,-0.002419028,9.596334E-4,-1.8322548E-4,-1.4993596E-4,6.4901233E-4,0.12539631,-0.03815759,9.793182,0,0,0,0,0,0,0,0,0,0,0,0,0,0,0,0,0,0,0,0,0
219,-0.9329473,-0.0023463825,7.027007E-4,8.8203896E-4,-0.0012152004,-4.1625206E-4,0.11581951,-0.011821371,9.742905,0,0,0,0,0,0,0,0,0,0,0,0,0,0,0,0,0,0,0,0,0
220,-0.9329265,-0.0022557683,4.5951636E-4,-1.8322548E-4,-0.0012152004,6.4901233E-4,0.11222821,-0.021398177,9.795577,0,0,0,0,0,0,0,0,0,0,0,0,0,0,0,0,0,0,0,0,0
221,-0.93280256,-0.002235462,2.181561E-4,8.8203896E-4,-1.4993596E-4,0.0017142767,0.11342531,0.012120646,9.770438,0,0,0,0,0,0,0,0,0,0,0,0,0,0,0,0,0,0,0,0,0
222,-0.93255615,-0.0022996636,8.504061E-5,-1.3315806E-4,-6.657903E-5,-3.8296255E-4,0.12180501,-0.0034416649,9.759664,0,0,0,0,0,0,0,0,0,0,0,0,0,0,0,0,0,0,0,0,0
223,-0.9325043,-0.002214843,-1.1905626E-4,9.321064E-4,0.0020639498,6.823019E-4,0.099060096,-0.019003976,9.788394,0,0,0,0,0,0,0,0,0,0,0,0,0,0,0,0,0,0,0,0,0
224,-0.9324627,-0.002180641,-3.9260805E-4,-1.3315806E-4,9.986854E-4,-3.8296255E-4,0.13497312,0.004938041,9.782409,0,0,0,0,0,0,0,0,0,0,0,0,0,0,0,0,0,0,0,0,0
225,-0.93239087,-0.0021838937,-6.8311294E-4,9.321064E-4,-6.657903E-5,6.823019E-4,0.14574704,0.022894554,9.76924,0,0,0,0,0,0,0,0,0,0,0,0,0,0,0,0,0,0,0,0,0
226,-0.9325729,-0.0020323975,-9.323129E-4,-1.3315806E-4,9.986854E-4,-3.8296255E-4,0.12419921,-0.044143096,9.782409,0,0,0,0,0,0,0,0,0,0,0,0,0,0,0,0,0,0,0,0,0
227,-0.9325039,-0.0019602173,-0.0011114373,-0.0011984225,9.986854E-4,-0.001448227,0.0966659,-0.015412673,9.775227,0,0,0,0,0,0,0,0,0,0,0,0,0,0,0,0,0,0,0,0,0
228,-0.9324404,-0.001894343,-0.0012970553,-1.3315806E-4,9.986854E-4,-0.001448227,0.101454295,-0.013018472,9.762058,0,0,0,0,0,0,0,0,0,0,0,0,0,0,0,0,0,0,0,0,0
229,-0.93235517,-0.0018861035,-0.0015345864,-1.3315806E-4,-6.657903E-5,6.823019E-4,0.12898761,0.014514848,9.790789,0,0,0,0,0,0,0,0,0,0,0,0,0,0,0,0,0,0,0,0,0
230,-0.9323257,-0.0018241196,-0.0017416056,-0.0011984225,-0.0011318434,0.0017475663,0.11581951,-0.011821371,9.744102,0,0,0,0,0,0,0,0,0,0,0,0,0,0,0,0,0,0,0,0,0
231,-0.9319902,-0.0017509484,-0.0020628953,9.321064E-4,0.0020639498,0.0017475663,0.101454295,-0.009427169,9.786,0,0,0,0,0,0,0,0,0,0,0,0,0,0,0,0,0,0,0,0,0
232,-0.9317027,-0.001721128,-0.0022534383,-0.0011984225,-6.657903E-5,-0.0025134913,0.11342531,0.0025438394,9.786,0,0,0,0,0,0,0,0,0,0,0,0,0,0,0,0,0,0,0,0,0
233,-0.93139076,-0.0017115329,-0.0024407106,6.657903E-5,-0.0012317119,-0.0014314491,0.11342531,0.012120646,9.763255,0,0,0,0,0,0,0,0,0,0,0,0,0,0,0,0,0,0,0,0,0
234,-0.9311857,-0.0016457047,-0.002634253,-9.986854E-4,-0.0012317119,-0.0014314491,0.118213706,-0.015412673,9.754875,0,0,0,0,0,0,0,0,0,0,0,0,0,0,0,0,0,0,0,0,0
235,-0.9308614,-0.0016562537,-0.0031497946,-9.986854E-4,-1.6644757E-4,-3.6618466E-4,0.13018471,0.01690905,9.781212,0,0,0,0,0,0,0,0,0,0,0,0,0,0,0,0,0,0,0,0,0
236,-0.93069017,-0.0015597816,-0.0033065297,-9.986854E-4,-1.6644757E-4,-3.6618466E-4,0.1074398,-0.030974984,9.778817,0,0,0,0,0,0,0,0,0,0,0,0,0,0,0,0,0,0,0,0,0
237,-0.9303431,-0.0015655295,-0.0034425235,0.0011318434,8.9881686E-4,-3.6618466E-4,0.099060096,0.01810615,9.801562,0,0,0,0,0,0,0,0,0,0,0,0,0,0,0,0,0,0,0,0,0
238,-0.93029493,-0.0015443118,-0.0035467837,6.657903E-5,8.9881686E-4,-3.6618466E-4,0.084694885,0.004938041,9.784803,0,0,0,0,0,0,0,0,0,0,0,0,0,0,0,0,0,0,0,0,0
239,-0.9303997,-0.0014892323,-0.003730038,-9.986854E-4,-0.0012317119,-3.6618466E-4,0.12419921,-0.011821371,9.771635,0,0,0,0,0,0,0,0,0,0,0,0,0,0,0,0,0,0,0,0,0
240,-0.93047273,-0.0012845983,-0.003920966,6.657903E-5,0.0019640813,-3.6618466E-4,0.11941081,-0.021398177,9.799169,0,0,0,0,0,0,0,0,0,0,0,0,0,0,0,0,0,0,0,0,0
241,-0.9304445,-0.001278786,-0.0040474636,0.0011318434,-1.6644757E-4,-3.6618466E-4,0.100257196,0.009726444,9.784803,0,0,0,0,0,0,0,0,0,0,0,0,0,0,0,0,0,0,0,0,0
242,-0.9304996,-0.0012363624,-0.0041913614,0.0011318434,-1.6644757E-4,0.0028296087,0.109834,-0.008230069,9.76924,0,0,0,0,0,0,0,0,0,0,0,0,0,0,0,0,0,0,0,0,0
243,-0.93060225,-0.001170241,-0.004339961,0.002197108,8.9881686E-4,-3.6618466E-4,0.11342531,-0.020201078,9.759664,0,0,0,0,0,0,0,0,0,0,0,0,0,0,0,0,0,0,0,0,0
244,-0.9305439,-0.0010387555,-0.004632308,1.6511598E-5,0.0021470406,-0.002546781,0.118213706,0.014514848,9.799169,0,0,0,0,0,0,0,0,0,0,0,0,0,0,0,0,0,0,0,0,0
245,-0.9305759,-0.0010085041,-0.004756706,1.6511598E-5,-0.0010487528,0.0027795413,0.1062427,-0.004638766,9.789592,0,0,0,0,0,0,0,0,0,0,0,0,0,0,0,0,0,0,0,0,0
246,-0.93057835,-9.861907E-4,-0.004864265,1.6511598E-5,-0.0010487528,-0.0014815165,0.099060096,-0.0010474633,9.774029,0,0,0,0,0,0,0,0,0,0,0,0,0,0,0,0,0,0,0,0,0
247,-0.93061644,-9.864069E-4,-0.0050314222,1.6511598E-5,-0.0010487528,-4.1625206E-4,0.12898761,0.009726444,9.754875,0,0,0,0,0,0,0,0,0,0,0,0,0,0,0,0,0,0,0,0,0
248,-0.9304649,-9.424563E-4,-0.0052147275,0.001081776,-0.0010487528,-0.0014815165,0.13856442,-0.011821371,9.759664,0,0,0,0,0,0,0,0,0,0,0,0,0,0,0,0,0,0,0,0,0
249,-0.9302497,-7.8794715E-4,-0.0060020797,1.6511598E-5,1.6511598E-5,6.4901233E-4,0.09427169,0.0013467384,9.760861,0,0,0,0,0,0,0,0,0,0,0,0,0,0,0,0,0,0,0,0,0
250,-0.9300006,-7.50508E-4,-0.0060817446,1.6511598E-5,0.001081776,0.0017142767,0.097862996,-0.01062427,9.800365,0,0,0,0,0,0,0,0,0,0,0,0,0,0,0,0,0,0,0,0,0
251,-0.9298502,-7.2356046E-4,-0.0062509016,0.001081776,0.001081776,-4.1625206E-4,0.14215572,-0.0058358666,9.776423,0,0,0,0,0,0,0,0,0,0,0,0,0,0,0,0,0,0,0,0,0
252,-0.92958426,-7.3868997E-4,-0.0063718506,-0.0010487528,1.6511598E-5,-4.1625206E-4,0.12060791,0.014514848,9.806351,0,0,0,0,0,0,0,0,0,0,0,0,0,0,0,0,0,0,0,0,0
253,-0.929587,-6.5731094E-4,-0.006508515,1.6511598E-5,0.001081776,6.4901233E-4,0.13018471,-0.033369187,9.780015,0,0,0,0,0,0,0,0,0,0,0,0,0,0,0,0,0,0,0,0,0
254,-0.9293589,-6.493557E-4,-0.006619577,-3.8296255E-4,1.6511598E-5,-4.4954158E-4,0.118213706,0.0025438394,9.800365,0,0,0,0,0,0,0,0,0,0,0,0,0,0,0,0,0,0,0,0,0
255,-0.9291104,-6.293463E-4,-0.0066917525,6.823019E-4,0.001081776,-4.4954158E-4,0.100257196,-0.0034416649,9.801562,0,0,0,0,0,0,0,0,0,0,0,0,0,0,0,0,0,0,0,0,0
256,-0.92895085,-5.6810735E-4,-0.006777622,-3.8296255E-4,-0.0010487528,0.0016809873,0.1074398,-0.023792379,9.780015,0,0,0,0,0,0,0,0,0,0,0,0,0,0,0,0,0,0,0,0,0
257,-0.9287097,-5.644071E-4,-0.006867027,-0.0025134913,-0.0031792817,6.1572285E-4,0.109834,0.0037409402,9.764452,0,0,0,0,0,0,0,0,0,0,0,0,0,0,0,0,0,0,0,0,0
258,-0.9285759,-3.0662946E-4,-0.007846373,-0.0046440205,-0.017027719,-0.0015148061,0.13497312,-0.027383681,9.703401,0,0,0,0,0,0,0,0,0,0,0,0,0,0,0,0,0,0,0,0,0
259,-0.9312317,0.0018955197,-0.0068549914,-0.012100872,-0.008505604,-0.13573812,-0.39534256,-1.0449194,9.469966,0,0,0,0,0,0,0,0,0,0,0,0,0,0,0,0,0,0,0,0,0
260,-0.9309535,0.0018279873,-0.0069786957,-0.0046440205,-0.0021140173,-0.0025800704,0.12779051,0.014514848,9.799169,0,0,0,0,0,0,0,0,0,0,0,0,0,0,0,0,0,0,0,0,0
261,-0.9338666,0.003552319,-0.0071695307,-0.018492458,-0.0894657,-0.0036453349,0.18166006,-0.97069913,10.995072,0,0,0,0,0,0,0,0,0,0,0,0,0,0,0,0,0,0,0,0,0
262,-0.94462186,0.019710906,-0.09120961,-0.17828213,-0.62529373,0.1540138,0.71556705,-0.5900211,9.7680435,0,0,0,0,0,0,0,0,0,0,0,0,0,0,0,0,0,0,0,0,0
263,-0.9479474,0.020458052,-0.09183269,-0.32102755,-0.17255633,0.17318857,1.1991957,-0.5612907,9.751285,0,0,0,0,0,0,0,0,0,0,0,0,0,0,0,0,0,0,0,0,0
264,-0.9501459,0.020164536,-0.092994705,-0.04512407,-0.58694416,0.24136548,1.4805145,-0.057311203,9.800365,0,0,0,0,0,0,0,0,0,0,0,0,0,0,0,0,0,0,0,0,0
265,-0.95457643,0.02192368,-0.09309992,-0.025949309,-0.6987969,0.26693183,0.9118916,-1.0090064,9.250896,0,0,0,0,0,0,0,0,0,0,0,0,0,0,0,0,0,0,0,0,0
266,-0.95619524,0.021837069,-0.093446046,-0.058972508,-0.7051885,0.19449385,1.1010334,-0.17582418,9.932047,0,0,0,0,0,0,0,0,0,0,0,0,0,0,0,0,0,0,0,0,0
267,-0.9789637,0.033298,-0.19216509,-0.07601674,-0.74992967,0.005942045,1.3751696,-0.25483283,9.780015,0,0,0,0,0,0,0,0,0,0,0,0,0,0,0,0,0,0,0,0,0
268,-0.9821749,0.034152757,-0.19183935,-0.10903993,-0.86604345,-0.03347274,1.5750854,-0.68578917,8.863035,0,0,0,0,0,0,0,0,0,0,0,0,0,0,0,0,0,0,0,0,0
269,-0.98192674,0.03360237,-0.1902433,-0.112235725,-0.45272088,-0.17195712,0.9861118,-0.058508303,8.7648735,0,0,0,0,0,0,0,0,0,0,0,0,0,0,0,0,0,0,0,0,0
270,-0.9836965,0.033846732,-0.19010407,-0.03766722,-0.10118361,0.035769448,1.6552912,-0.41644147,8.930073,0,0,0,0,0,0,0,0,0,0,0,0,0,0,0,0,0,0,0,0,0
271,-0.99654686,0.03924846,-0.17634295,0.018791797,0.29829055,0.018725218,2.1520882,-1.2208933,10.391733,0,0,0,0,0,0,0,0,0,0,0,0,0,0,0,0,0,0,0,0,0
272,-1.0011698,0.041336026,-0.17612468,0.28084683,0.47192866,-0.072887525,1.9354128,-1.6997336,11.592425,0,0,0,0,0,0,0,0,0,0,0,0,0,0,0,0,0,0,0,0,0
273,-1.004105,0.042748958,-0.17528602,0.7943043,0.662611,-0.085670695,1.6505028,-1.3872902,12.225692,0,0,0,0,0,0,0,0,0,0,0,0,0,0,0,0,0,0,0,0,0
274,-1.006855,0.04425885,-0.17398088,1.0542288,0.5294529,-0.15491289,1.3177087,-1.4255974,11.927613,0,0,0,0,0,0,0,0,0,0,0,0,0,0,0,0,0,0,0,0,0
275,-1.0023327,-0.12804228,-0.03035679,1.3098923,1.0642157,-0.19113187,0.32531217,-1.4639047,12.151471,0,0,0,0,0,0,0,0,0,0,0,0,0,0,0,0,0,0,0,0,0
276,-1.0065737,-0.123170376,-0.028914345,1.1394441,1.3635521,-0.0696904,-0.47794253,-1.3286324,11.436802,0,0,0,0,0,0,0,0,0,0,0,0,0,0,0,0,0,0,0,0,0
277,-1.0028869,-0.1212703,-0.024868503,1.1479663,1.5339943,0.17638569,-2.4124575,0.39399582,13.77474,0,0,0,0,0,0,0,0,0,0,0,0,0,0,0,0,0,0,0,0,0
278,-1.0028839,-0.11965268,-0.02150266,1.7296007,1.0940402,0.5439019,-1.4104841,0.39878422,9.766847,0,0,0,0,0,0,0,0,0,0,0,0,0,0,0,0,0,0,0,0,0
279,-1.0018393,-0.121209264,-0.019721411,1.4909813,1.6618261,0.5470977,-0.55216277,2.2626703,9.322722,0,0,0,0,0,0,0,0,0,0,0,0,0,0,0,0,0,0,0,0,0
280,-1.0407884,-0.32002145,0.18175893,1.3801938,1.0983012,0.40648282,-1.409287,3.7291188,9.60045,0,0,0,0,0,0,0,0,0,0,0,0,0,0,0,0,0,0,0,0,0
281,-1.0309653,-0.32489,0.18213269,1.300299,0.73185027,0.52153134,-1.3865421,4.399495,6.824373,0,0,0,0,0,0,0,0,0,0,0,0,0,0,0,0,0,0,0,0,0
282,-1.0258242,-0.3291493,0.18060447,0.9903071,1.1036276,0.63231885,-0.89453363,5.0567036,8.429685,0,0,0,0,0,0,0,0,0,0,0,0,0,0,0,0,0,0,0,0,0
283,-1.0248514,-0.33253217,0.17792065,1.0499619,0.6146712,0.5652072,-0.37618893,4.411466,8.099285,0,0,0,0,0,0,0,0,0,0,0,0,0,0,0,0,0,0,0,0,0
284,-1.0536857,-0.4824794,0.15760568,1.0467662,-0.054314904,0.419266,-1.4284406,4.7729907,7.115268,0,0,0,0,0,0,0,0,0,0,0,0,0,0,0,0,0,0,0,0,0
285,-1.0416597,-0.48614022,0.16178791,0.986046,-0.025552765,0.49809554,-2.2676082,4.9645267,5.903802,0,0,0,0,0,0,0,0,0,0,0,0,0,0,0,0,0,0,0,0,0
286,-1.0481851,-0.48548305,0.15386489,0.9242607,0.26206863,-0.11230098,2.05632,4.313304,8.612842,0,0,0,0,0,0,0,0,0,0,0,0,0,0,0,0,0,0,0,0,0
287,-1.036609,-0.48856607,0.15869628,0.5876371,-0.83408844,-0.012166118,-3.31986,6.411822,7.953239,0,0,0,0,0,0,0,0,0,0,0,0,0,0,0,0,0,0,0,0,0
288,-1.0277467,-0.4889203,0.16355877,0.4715233,-1.6937568,0.69303894,-4.094384,5.8048916,9.635165,0,0,0,0,0,0,0,0,0,0,0,0,0,0,0,0,0,0,0,0,0
289,-1.178561,-0.5707925,-0.25508094,0.51626444,-2.3733957,1.0967741,-2.0317795,4.417452,7.25892,0,0,0,0,0,0,0,0,0,0,0,0,0,0,0,0,0,0,0,0,0
290,-1.1770447,-0.56947327,-0.24972522,0.6824457,-1.3571333,0.8592202,-0.10684125,4.647295,8.409334,0,0,0,0,0,0,0,0,0,0,0,0,0,0,0,0,0,0,0,0,0
291,-1.1814204,-0.56682026,-0.24810183,1.4281307,-0.09905601,0.41393965,1.6349405,4.55033,9.607632,0,0,0,0,0,0,0,0,0,0,0,0,0,0,0,0,0,0,0,0,0
292,-1.1862755,-0.5671665,-0.2513426,1.4696716,-0.46337858,0.24989,2.6752212,4.435408,6.152799,0,0,0,0,0,0,0,0,0,0,0,0,0,0,0,0,0,0,0,0,0
293,-1.2830908,-0.6839804,-0.3335281,1.0137384,-0.18640982,0.2711953,3.3886933,4.0798693,6.1360397,0,0,0,0,0,0,0,0,0,0,0,0,0,0,0,0,0,0,0,0,0
294,-1.2890154,-0.68214107,-0.33894458,0.6664622,-0.22688988,-0.28593802,3.7478235,4.435408,5.427356,0,0,0,0,0,0,0,0,0,0,0,0,0,0,0,0,0,0,0,0,0
295,-1.2893182,-0.6820568,-0.3381681,0.31918597,-0.51131546,-0.70778275,2.0156186,5.490054,6.5131264,0,0,0,0,0,0,0,0,0,0,0,0,0,0,0,0,0,0,0,0,0
296,-1.2858677,-0.68239236,-0.33407623,1.2885766,-0.8404822,-1.4055309,1.0579379,6.675184,7.873033,0,0,0,0,0,0,0,0,0,0,0,0,0,0,0,0,0,0,0,0,0
297,-1.2718068,-0.689032,-0.32652608,2.1695502,0.019186212,-0.42761818,-0.22894554,8.478018,5.2681417,0,0,0,0,0,0,0,0,0,0,0,0,0,0,0,0,0,0,0,0,0
298,-1.3615131,-0.96034336,-0.35200775,1.9319963,0.49962047,-0.77063334,2.1820157,7.5849805,5.191527,0,0,0,0,0,0,0,0,0,0,0,0,0,0,0,0,0,0,0,0,0
299,-1.3374615,-0.9633401,-0.3385326,1.8510362,-0.39839745,-1.1946086,-1.8581998,11.841871,5.5745993,0,0,0,0,0,0,0,0,0,0,0,0,0,0,0,0,0,0,0,0,0
300,-1.3167815,-0.9711477,-0.32816276,-0.05152604,-1.1131898,0.06986031,0.33249477,9.519496,3.066673,0,0,0,0,0,0,0,0,0,0,0,0,0,0,0,0,0,0,0,0,0
301,-1.3180957,-0.9674558,-0.32830763,-1.2424917,-1.8215907,-0.1815421,2.3041198,7.016358,6.6100917,0,0,0,0,0,0,0,0,0,0,0,0,0,0,0,0,0,0,0,0,0
302,-1.0601757,-0.9121533,-0.4223552,-0.6534004,-2.302025,-1.0422758,2.4753053,6.7745433,5.629666,0,0,0,0,0,0,0,0,0,0,0,0,0,0,0,0,0,0,0,0,0
303,-1.068461,-0.91347516,-0.4282385,0.10080677,-1.7928286,-1.2244359,2.7302878,6.1747956,3.134908,0,0,0,0,0,0,0,0,0,0,0,0,0,0,0,0,0,0,0,0,0
304,-1.0700709,-0.91704214,-0.43004838,0.3905587,-0.714781,-1.538689,1.3823522,5.369147,2.4214358,0,0,0,0,0,0,0,0,0,0,0,0,0,0,0,0,0,0,0,0,0
305,-1.0584543,-0.91672,-0.41928488,0.78470653,1.00136,-1.6441501,-1.0920552,7.0606503,5.7649384,0,0,0,0,0,0,0,0,0,0,0,0,0,0,0,0,0,0,0,0,0
306,-1.0314337,-0.9148878,-0.4005562,1.4739326,1.7960473,-1.430032,-4.2751465,9.362676,7.516297,0,0,0,0,0,0,0,0,0,0,0,0,0,0,0,0,0,0,0,0,0
307,-0.7726077,-1.1012352,0.021748353,0.6930938,1.1068212,-0.6790206,-4.9048214,10.158748,8.538621,0,0,0,0,0,0,0,0,0,0,0,0,0,0,0,0,0,0,0,0,0
308,-0.7567465,-1.0941591,0.030554397,-0.048330247,-0.054317035,-0.15064943,-4.521749,9.400983,9.079711,0,0,0,0,0,0,0,0,0,0,0,0,0,0,0,0,0,0,0,0,0
309,-0.74016136,-1.0890348,0.03937556,-1.094426,-1.3358328,-0.037730068,-3.9926307,9.763704,7.82874,0,0,0,0,0,0,0,0,0,0,0,0,0,0,0,0,0,0,0,0,0
310,-0.7237614,-1.0834033,0.04721349,-1.481117,-1.4423592,0.38944095,-3.4862568,8.716241,7.576152,0,0,0,0,0,0,0,0,0,0,0,0,0,0,0,0,0,0,0,0,0
311,-0.915176,-0.9061425,-0.23989506,-1.1530156,-0.9107923,0.9305953,-0.65511346,5.8982654,7.054216,0,0,0,0,0,0,0,0,0,0,0,0,0,0,0,0,0,0,0,0,0
312,-0.92642593,-0.9005315,-0.24038145,-0.8472847,-0.46231598,0.82726467,1.8025346,4.9860744,6.662764,0,0,0,0,0,0,0,0,0,0,0,0,0,0,0,0,0,0,0,0,0
313,-0.9407057,-0.8919606,-0.2415693,-0.5372927,0.046880424,0.5194032,2.0527287,3.5483565,6.6412163,0,0,0,0,0,0,0,0,0,0,0,0,0,0,0,0,0,0,0,0,0
314,-0.957313,-0.88138896,-0.24115479,0.1529986,0.13955843,0.23497763,2.186804,3.7961564,9.74051,0,0,0,0,0,0,0,0,0,0,0,0,0,0,0,0,0,0,0,0,0
315,-0.97216535,-0.8721114,-0.24204361,1.4164022,-0.7552637,-0.35517886,2.5950153,4.085855,8.837896,0,0,0,0,0,0,0,0,0,0,0,0,0,0,0,0,0,0,0,0,0
316,-0.95552754,-1.1155761,-0.36555406,1.882988,-1.4764477,-1.4204433,1.8264766,10.9632,3.2594063,0,0,0,0,0,0,0,0,0,0,0,0,0,0,0,0,0,0,0,0,0
317,-0.93150693,-1.1157556,-0.34915984,0.5396896,-0.5145139,-0.49259797,-2.0186112,9.796026,5.0909705,0,0,0,0,0,0,0,0,0,0,0,0,0,0,0,0,0,0,0,0,0
318,-0.92861074,-1.1118916,-0.3453978,0.26485136,-0.9225102,0.1486912,1.0435727,8.5917425,6.4233437,0,0,0,0,0,0,0,0,0,0,0,0,0,0,0,0,0,0,0,0,0
319,-0.93026876,-1.107876,-0.3454568,0.018775286,-1.3400939,-0.1953892,2.0958242,8.03509,5.5626283,0,0,0,0,0,0,0,0,0,0,0,0,0,0,0,0,0,0,0,0,0
320,-0.7931645,-1.1555257,-0.35361946,0.19560918,-0.9874913,-0.528817,1.3201029,8.897003,4.5055885,0,0,0,0,0,0,0,0,0,0,0,0,0,0,0,0,0,0,0,0,0
321,-0.79036266,-1.1537539,-0.35120928,0.33941987,-0.35792005,-0.22734714,1.0327988,8.109311,4.349965,0,0,0,0,0,0,0,0,0,0,0,0,0,0,0,0,0,0,0,0,0
322,-0.796229,-1.1509422,-0.35499978,0.4107926,-0.29293892,-0.027077423,2.174833,6.7745433,3.622128,0,0,0,0,0,0,0,0,0,0,0,0,0,0,0,0,0,0,0,0,0
323,-0.8003938,-1.1490318,-0.3580528,0.18495654,-0.23541465,-0.27102298,1.6373347,5.9461493,2.9433718,0,0,0,0,0,0,0,0,0,0,0,0,0,0,0,0,0,0,0,0,0
324,-0.7834422,-1.1493721,-0.34654498,0.14873755,0.3685903,-0.36157045,-0.55216277,5.9772744,2.5004444,0,0,0,0,0,0,0,0,0,0,0,0,0,0,0,0,0,0,0,0,0
325,-0.66578317,-1.1721449,-0.18560536,-0.19640812,0.54542416,-0.48514113,-0.8322844,4.6030025,3.385102,0,0,0,0,0,0,0,0,0,0,0,0,0,0,0,0,0,0,0,0,0
326,-0.6449547,-1.1631361,-0.17653236,-0.4265111,0.47404853,-0.96983486,-1.124377,3.7363014,4.093786,0,0,0,0,0,0,0,0,0,0,0,0,0,0,0,0,0,0,0,0,0
327,-0.6471709,-1.1548434,-0.17418431,-0.52664596,0.37178314,-1.8252422,0.42227733,6.6368766,7.1332245,0,0,0,0,0,0,0,0,0,0,0,0,0,0,0,0,0,0,0,0,0
328,-0.6820013,-1.1583097,-0.21196382,-0.4861659,-0.5251695,-1.6963452,2.3124995,10.601675,-1.2404958,0,0,0,0,0,0,0,0,0,0,0,0,0,0,0,0,0,0,0,0,0
329,-0.1690441,-0.9093754,0.45673215,-1.4779271,1.5478351,-2.2502828,-3.1498716,7.9752355,8.908525,0,0,0,0,0,0,0,0,0,0,0,0,0,0,0,0,0,0,0,0,0
330,-0.15827958,-0.90893155,0.4590647,-0.675783,-0.034082603,-1.3682437,-5.2854996,11.960384,8.185476,0,0,0,0,0,0,0,0,0,0,0,0,0,0,0,0,0,0,0,0,0
331,-0.1556756,-0.9100391,0.45719466,-0.5404944,-0.58375907,-0.15171176,-2.8302457,11.413309,7.3941927,0,0,0,0,0,0,0,0,0,0,0,0,0,0,0,0,0,0,0,0,0
332,-0.15861587,-0.90993327,0.45222378,0.2595192,-0.18002383,0.22326131,-1.3590088,8.348731,6.4185553,0,0,0,0,0,0,0,0,0,0,0,0,0,0,0,0,0,0,0,0,0
333,-0.15614069,-0.9102415,0.45036423,0.8155872,0.31106308,0.22858764,-1.9384055,7.3216186,5.1615996,0,0,0,0,0,0,0,0,0,0,0,0,0,0,0,0,0,0,0,0,0
334,-0.09994189,-1.020813,0.5480076,0.4182436,0.43569902,0.39902994,-3.3126774,8.4169655,4.5008,0,0,0,0,0,0,0,0,0,0,0,0,0,0,0,0,0,0,0,0,0
335,-0.09610007,-1.0166357,0.54556113,-0.5543428,-0.071366854,0.9274011,-2.74166,7.4951982,6.9536595,0,0,0,0,0,0,0,0,0,0,0,0,0,0,0,0,0,0,0,0,0
336,-0.10160701,-1.0105855,0.539401,-0.60547554,-0.69348127,0.9572285,-1.9300258,7.1085343,7.971195,0,0,0,0,0,0,0,0,0,0,0,0,0,0,0,0,0,0,0,0,0
337,-0.10885581,-1.0056924,0.53197277,-0.16445605,-1.0343659,0.9178137,-1.3159131,7.5694184,7.7593083,0,0,0,0,0,0,0,0,0,0,0,0,0,0,0,0,0,0,0,0,0
338,-0.27772927,-1.10468,0.27903637,0.6909513,-0.55819273,0.8166136,-0.39893386,7.4269633,6.1492076,0,0,0,0,0,0,0,0,0,0,0,0,0,0,0,0,0,0,0,0,0
339,-0.282218,-1.1010633,0.27345255,1.0137264,-0.00212467,0.7665462,8.9782564E-4,7.6173024,5.7541647,0,0,0,0,0,0,0,0,0,0,0,0,0,0,0,0,0,0,0,0,0
340,-0.29069427,-1.0966998,0.26579776,1.1053392,0.250343,0.58438593,0.64254385,7.1683893,5.855918,0,0,0,0,0,0,0,0,0,0,0,0,0,0,0,0,0,0,0,0,0
341,-0.29920098,-1.094432,0.25695023,1.0669897,0.11398915,0.041101098,0.84006554,7.1815577,4.707898,0,0,0,0,0,0,0,0,0,0,0,0,0,0,0,0,0,0,0,0,0
342,-0.3033098,-1.0925782,0.25136685,0.3063967,-0.22902307,-0.14425652,-0.14634559,8.053047,5.119701,0,0,0,0,0,0,0,0,0,0,0,0,0,0,0,0,0,0,0,0,0
343,-0.24793424,-1.1110238,0.25831854,-0.038748994,-0.40053064,0.018728947,-0.56652796,8.729409,5.5267153,0,0,0,0,0,0,0,0,0,0,0,0,0,0,0,0,0,0,0,0,0
344,-0.25258958,-1.108944,0.25294527,-0.029161613,-0.17895563,0.2956977,0.055964466,8.557027,5.4093995,0,0,0,0,0,0,0,0,0,0,0,0,0,0,0,0,0,0,0,0,0
345,-0.26031497,-1.1063571,0.24569893,-0.10373013,0.04368463,0.3670704,0.61860186,8.458864,5.6583962,0,0,0,0,0,0,0,0,0,0,0,0,0,0,0,0,0,0,0,0,0
346,-0.2680262,-1.1035646,0.23875092,-0.17403758,-0.14167137,0.30528507,0.5695207,8.128465,5.580585,0,0,0,0,0,0,0,0,0,0,0,0,0,0,0,0,0,0,0,0,0
347,-0.351685,-1.0771511,0.12316384,-0.22943133,-0.3142442,0.20088917,0.8783727,7.7022967,5.193921,0,0,0,0,0,0,0,0,0,0,0,0,0,0,0,0,0,0,0,0,0
348,-0.36044115,-1.0749234,0.11642894,-0.08135957,-0.07562499,0.070926905,1.0914567,7.446117,5.032313,0,0,0,0,0,0,0,0,0,0,0,0,0,0,0,0,0,0,0,0,0
349,-0.36693656,-1.0723046,0.11134558,0.35859463,0.4548767,-0.11016805,0.75746554,7.6173024,5.464466,0,0,0,0,0,0,0,0,0,0,0,0,0,0,0,0,0,0,0,0,0
350,-0.36874792,-1.0714425,0.108289376,0.75913405,0.79469603,-0.14319125,0.20560206,8.244583,4.955698,0,0,0,0,0,0,0,0,0,0,0,0,0,0,0,0,0,0,0,0,0
351,-0.3689101,-1.071807,0.10591432,0.4651211,0.69882226,0.010206831,0.039205052,8.70427,4.4948144,0,0,0,0,0,0,0,0,0,0,0,0,0,0,0,0,0,0,0,0,0
352,-0.35227832,-1.1318105,0.21145469,-0.012117383,0.311066,0.09755851,0.27383682,8.41936,4.9006314,0,0,0,0,0,0,0,0,0,0,0,0,0,0,0,0,0,0,0,0,0
353,-0.3557162,-1.1294987,0.20585215,-0.30932617,-0.10758292,0.028316326,0.34925416,8.21705,5.0778027,0,0,0,0,0,0,0,0,0,0,0,0,0,0,0,0,0,0,0,0,0
354,-0.3589401,-1.1271106,0.20082185,-0.25393242,-0.001056476,-0.031338483,0.23552959,8.21705,5.154417,0,0,0,0,0,0,0,0,0,0,0,0,0,0,0,0,0,0,0,0,0
355,-0.36367488,-1.1244812,0.19525902,-0.14421017,0.15660267,-0.061165884,0.4019266,8.0267105,5.187936,0,0,0,0,0,0,0,0,0,0,0,0,0,0,0,0,0,0,0,0,0
356,-0.33587748,-1.1057942,0.24980623,-0.09201221,0.2663249,-0.21136817,0.71077865,7.754969,4.8491564,0,0,0,0,0,0,0,0,0,0,0,0,0,0,0,0,0,0,0,0,0
357,-0.34280545,-1.1050289,0.24154402,-0.15060176,0.49748728,-0.55438334,0.6808511,7.6065283,4.132093,0,0,0,0,0,0,0,0,0,0,0,0,0,0,0,0,0,0,0,0,0
358,-0.3360936,-1.1029336,0.24231349,-0.055793226,1.016271,-0.68221503,-1.5146319,8.540267,5.2669444,0,0,0,0,0,0,0,0,0,0,0,0,0,0,0,0,0,0,0,0,0
359,-0.32629415,-1.0999144,0.24509738,-0.05793414,0.88310796,-0.28273848,-2.4567502,9.26571,6.1240687,0,0,0,0,0,0,0,0,0,0,0,0,0,0,0,0,0,0,0,0,0
360,-0.324215,-1.0967468,0.24522164,-0.048346758,0.3270399,0.12951884,-1.56491,8.644415,6.0953383,0,0,0,0,0,0,0,0,0,0,0,0,0,0,0,0,0,0,0,0,0
361,-0.37172446,-1.0899106,0.22988139,-0.27418283,-0.20665757,0.100756705,-0.80714524,8.190714,5.4800286,0,0,0,0,0,0,0,0,0,0,0,0,0,0,0,0,0,0,0,0,0
362,-0.3722027,-1.0874841,0.22830753,-0.29974917,-0.19600493,0.01766608,-0.8370728,8.085369,5.494394,0,0,0,0,0,0,0,0,0,0,0,0,0,0,0,0,0,0,0,0,0
363,-0.36941576,-1.0849963,0.22862941,-0.16872165,0.0031995217,0.030449253,-1.4296377,8.494778,5.732617,0,0,0,0,0,0,0,0,0,0,0,0,0,0,0,0,0,0,0,0,0
364,-0.3696787,-1.0824332,0.2275441,-0.09734892,0.028765868,0.15615046,-1.0142437,8.294862,5.7577558,0,0,0,0,0,0,0,0,0,0,0,0,0,0,0,0,0,0,0,0,0
365,-0.4232961,-1.0740631,0.18475343,-0.074978374,0.037287984,0.15508519,-0.5162497,7.9034095,5.664382,0,0,0,0,0,0,0,0,0,0,0,0,0,0,0,0,0,0,0,0,0
366,-0.4250761,-1.0711911,0.18328509,0.0070469906,0.10120385,0.06134192,-0.65990186,7.9716444,5.902605,0,0,0,0,0,0,0,0,0,0,0,0,0,0,0,0,0,0,0,0,0
367,-0.42657652,-1.068874,0.18173502,0.13381346,0.07137644,0.027253458,-0.5940613,7.957279,5.59495,0,0,0,0,0,0,0,0,0,0,0,0,0,0,0,0,0,0,0,0,0
368,-0.4262107,-1.0673883,0.18095304,0.16896719,0.12463967,0.018731343,-0.7496844,8.116493,5.2202578,0,0,0,0,0,0,0,0,0,0,0,0,0,0,0,0,0,0,0,0,0
369,-0.42577192,-1.0662311,0.18002537,0.05285336,0.08948594,0.07838615,-0.68504095,8.121282,5.059846,0,0,0,0,0,0,0,0,0,0,0,0,0,0,0,0,0,0,0,0,0
370,-0.44808042,-1.0696317,0.17006953,-0.073913105,-0.020236297,0.08158194,-0.5342063,7.980024,5.426159,0,0,0,0,0,0,0,0,0,0,0,0,0,0,0,0,0,0,0,0,0
371,-0.44789678,-1.0678899,0.1691587,-0.045150965,-0.048998434,0.018731343,-0.66828156,8.0662155,5.3387704,0,0,0,0,0,0,0,0,0,0,0,0,0,0,0,0,0,0,0,0,0
372,-0.44580626,-1.0667505,0.1691991,0.03793966,0.08735541,0.058146127,-0.8825626,8.266131,5.1053357,0,0,0,0,0,0,0,0,0,0,0,0,0,0,0,0,0,0,0,0,0
373,-0.4434323,-1.0657871,0.16938685,0.034743864,0.2077303,0.13164937,-0.9124901,8.33676,5.0550575,0,0,0,0,0,0,0,0,0,0,0,0,0,0,0,0,0,0,0,0,0
374,-0.48197028,-1.0721136,0.16636214,0.029417543,0.26205876,0.17639048,-0.9220669,8.226626,5.130475,0,0,0,0,0,0,0,0,0,0,0,0,0,0,0,0,0,0,0,0,0
375,-0.4787194,-1.0708178,0.16676888,0.019830164,0.27484196,0.18704313,-0.9675568,8.250568,5.122095,0,0,0,0,0,0,0,0,0,0,0,0,0,0,0,0,0,0,0,0,0
376,-0.47617918,-1.0698013,0.16678543,0.030485738,0.346216,0.23604475,-0.8550293,8.3451395,5.0538607,0,0,0,0,0,0,0,0,0,0,0,0,0,0,0,0,0,0,0,0,0
377,-0.47450787,-1.0685313,0.16657782,-0.08882388,0.3014749,0.25735006,-0.81073654,8.219444,5.1412487,0,0,0,0,0,0,0,0,0,0,0,0,0,0,0,0,0,0,0,0,0
378,-0.5538064,-1.041442,0.11555278,-0.22837351,0.14168523,0.26587215,-0.66588736,8.072201,5.6583962,0,0,0,0,0,0,0,0,0,0,0,0,0,0,0,0,0,0,0,0,0
379,-0.55473006,-1.0392785,0.11459219,-0.24754828,-0.058584485,0.21154368,-0.39414546,7.88665,5.828385,0,0,0,0,0,0,0,0,0,0,0,0,0,0,0,0,0,0,0,0,0
380,-0.5550845,-1.0371302,0.11399277,-0.2230472,-0.12782668,0.12419199,-0.5006874,7.9740386,5.902605,0,0,0,0,0,0,0,0,0,0,0,0,0,0,0,0,0,0,0,0,0
381,-0.55536216,-1.0348407,0.11355142,-0.1751103,-0.1448709,0.10075617,-0.55814826,8.029105,6.054637,0,0,0,0,0,0,0,0,0,0,0,0,0,0,0,0,0,0,0,0,0
382,-0.55649394,-1.0323569,0.11268972,-0.15273975,-0.23967944,0.08584247,-0.43724108,7.9991775,6.194698,0,0,0,0,0,0,0,0,0,0,0,0,0,0,0,0,0,0,0,0,0
383,-0.5772953,-1.0131836,0.054948606,-0.12078181,-0.38242486,0.041101363,-0.41569328,7.982418,6.1611786,0,0,0,0,0,0,0,0,0,0,0,0,0,0,0,0,0,0,0,0,0
384,-0.5785571,-1.0113455,0.0547868,-0.14954396,-0.51238716,0.04749295,-0.28161797,7.9165773,6.0055556,0,0,0,0,0,0,0,0,0,0,0,0,0,0,0,0,0,0,0,0,0
385,-0.5786932,-1.0098377,0.054871753,-0.058996476,-0.48255974,0.07732035,-0.3498527,8.0506525,5.9193645,0,0,0,0,0,0,0,0,0,0,0,0,0,0,0,0,0,0,0,0,0
386,-0.58060145,-1.0084113,0.05364688,0.14446904,-0.28974685,0.15614992,0.036810853,7.8854527,5.7769094,0,0,0,0,0,0,0,0,0,0,0,0,0,0,0,0,0,0,0,0,0
387,-0.63131595,-1.0676374,0.006131964,0.45659152,-0.03301814,0.1987605,0.20799628,7.777714,5.8235965,0,0,0,0,0,0,0,0,0,0,0,0,0,0,0,0,0,0,0,0,0
388,-0.6302999,-1.0668631,0.0057001403,0.7229076,0.18855686,0.11566988,0.07511808,8.072201,4.858733,0,0,0,0,0,0,0,0,0,0,0,0,0,0,0,0,0,0,0,0,0
389,-0.6254375,-1.0675039,0.00713852,0.68349284,0.52198464,0.083711945,-0.33189622,8.387038,4.2673655,0,0,0,0,0,0,0,0,0,0,0,0,0,0,0,0,0,0,0,0,0
390,-0.61793226,-1.0676357,0.010370544,0.32343346,0.4005445,0.14656255,-0.78918874,8.669554,4.632481,0,0,0,0,0,0,0,0,0,0,0,0,0,0,0,0,0,0,0,0,0
391,-0.6157659,-1.0672522,0.010362949,-0.2049377,-0.14060985,0.28078586,-0.05057751,8.794052,5.06224,0,0,0,0,0,0,0,0,0,0,0,0,0,0,0,0,0,0,0,0,0
392,-0.69699913,-1.0175596,-0.10411379,-0.37964854,-0.4218431,0.29570115,0.75507134,7.75856,5.2537766,0,0,0,0,0,0,0,0,0,0,0,0,0,0,0,0,0,0,0,0,0
393,-0.6987745,-1.0169753,-0.10458325,-0.08776607,-0.25885767,0.004883971,0.679654,8.109311,5.298069,0,0,0,0,0,0,0,0,0,0,0,0,0,0,0,0,0,0,0,0,0
394,-0.69525355,-1.0176959,-0.10239091,0.4342135,0.24714294,-0.11336038,-0.024241293,8.454076,4.8156376,0,0,0,0,0,0,0,0,0,0,0,0,0,0,0,0,0,0,0,0,0
395,-0.6905799,-1.018792,-0.09957449,0.45019245,0.43249896,-0.014290788,-0.1822586,8.718636,4.74022,0,0,0,0,0,0,0,0,0,0,0,0,0,0,0,0,0,0,0,0,0
396,-0.7133943,-1.0394838,-0.09035187,0.16257107,0.22264187,0.08690933,-0.06494272,8.51872,4.955698,0,0,0,0,0,0,0,0,0,0,0,0,0,0,0,0,0,0,0,0,0
397,-0.71226424,-1.0387046,-0.089416966,-0.030241791,0.08522275,0.11034515,0.22595279,8.081778,5.178359,0,0,0,0,0,0,0,0,0,0,0,0,0,0,0,0,0,0,0,0,0
398,-0.7078904,-1.037545,-0.086229526,0.018760372,0.04580797,0.011275558,-0.38456866,8.215853,5.488408,0,0,0,0,0,0,0,0,0,0,0,0,0,0,0,0,0,0,0,0,0
399,-0.704703,-1.0375339,-0.084361516,0.30744705,0.27590507,0.06666931,-0.0350152,8.261343,4.882675,0,0,0,0,0,0,0,0,0,0,0,0,0,0,0,0,0,0,0,0,0
400,-0.7038588,-1.0378364,-0.0840465,0.31703442,0.31851566,0.06453878,0.31932664,8.170362,4.6468463,0,0,0,0,0,0,0,0,0,0,0,0,0,0,0,0,0,0,0,0,0
401,-0.7177329,-1.0721266,-0.06530431,0.14552684,0.106528044,0.020862937,0.22475569,8.272117,4.371513,0,0,0,0,0,0,0,0,0,0,0,0,0,0,0,0,0,0,0,0,0
402,-0.71582276,-1.0729144,-0.06518129,0.101850994,0.11398489,0.07412616,0.240318,8.219444,4.057873,0,0,0,0,0,0,0,0,0,0,0,0,0,0,0,0,0,0,0,0,0
403,-0.7155341,-1.0738156,-0.066285975,-0.062199723,0.17896602,0.058147192,0.48332947,8.269722,3.9944263,0,0,0,0,0,0,0,0,0,0,0,0,0,0,0,0,0,0,0,0,0
404,-0.71318185,-1.073483,-0.06505728,-0.26459998,0.21198922,0.010210293,0.022445641,8.201488,4.6264954,0,0,0,0,0,0,0,0,0,0,0,0,0,0,0,0,0,0,0,0,0
405,-0.712886,-1.0306811,-0.0425637,-0.3146674,0.17257443,0.020862937,-0.09726445,8.1859255,5.083788,0,0,0,0,0,0,0,0,0,0,0,0,0,0,0,0,0,0,0,0,0
406,-0.71085465,-1.0302166,-0.041106205,-0.2635347,0.30360195,-0.024943434,-0.15951368,8.333169,5.260959,0,0,0,0,0,0,0,0,0,0,0,0,0,0,0,0,0,0,0,0,0
407,-0.7090073,-1.0291148,-0.039156154,-0.19003145,0.46871793,-0.05050978,-0.3199252,8.37387,5.666776,0,0,0,0,0,0,0,0,0,0,0,0,0,0,0,0,0,0,0,0,0
408,-0.7063825,-1.0281663,-0.03693361,-0.11120189,0.5273075,-0.11016459,-0.42287588,8.800038,5.8654947,0,0,0,0,0,0,0,0,0,0,0,0,0,0,0,0,0,0,0,0,0
409,-0.70254964,-1.0273353,-0.03391348,-0.07711023,0.8394313,-0.21029997,-0.69820905,9.277681,6.094141,0,0,0,0,0,0,0,0,0,0,0,0,0,0,0,0,0,0,0,0,0
410,-0.6330052,-1.0146551,0.15916869,0.0358078,1.2697982,-0.21775682,-1.9360113,9.10889,7.2457523,0,0,0,0,0,0,0,0,0,0,0,0,0,0,0,0,0,0,0,0,0
411,-0.6291387,-1.0108496,0.16168337,0.24140383,0.9640672,0.018731875,-2.2556372,8.676737,7.7018476,0,0,0,0,0,0,0,0,0,0,0,0,0,0,0,0,0,0,0,0,0
412,-0.627289,-1.0085187,0.1628831,0.24140383,0.06498406,0.18704365,-1.4811131,8.39063,6.5717845,0,0,0,0,0,0,0,0,0,0,0,0,0,0,0,0,0,0,0,0,0
413,-0.6275303,-1.0080693,0.16190822,0.122094214,-0.41118914,0.2243279,-0.6120178,8.11769,5.3387704,0,0,0,0,0,0,0,0,0,0,0,0,0,0,0,0,0,0,0,0,0
414,-0.66832817,-1.0330148,0.084870055,0.19133641,-0.27590054,0.15828152,-0.1690905,7.958476,4.918588,0,0,0,0,0,0,0,0,0,0,0,0,0,0,0,0,0,0,0,0,0
415,-0.66933674,-1.0329299,0.08397646,0.33195132,-0.12569827,0.056016132,-0.19542672,8.076989,4.85993,0,0,0,0,0,0,0,0,0,0,0,0,0,0,0,0,0,0,0,0,0
416,-0.66902024,-1.0340085,0.08357115,0.39054084,-0.2503342,0.014470818,-0.27682957,8.272117,4.3391914,0,0,0,0,0,0,0,0,0,0,0,0,0,0,0,0,0,0,0,0,0
417,-0.66949743,-1.0365343,0.08169091,0.30318916,-0.4154502,0.015536083,0.038007952,8.364293,3.6400845,0,0,0,0,0,0,0,0,0,0,0,0,0,0,0,0,0,0,0,0,0
418,-0.67065376,-1.0395255,0.078874394,0.16683532,-0.39947122,0.0016876452,0.19722237,8.242189,3.3312323,0,0,0,0,0,0,0,0,0,0,0,0,0,0,0,0,0,0,0,0,0
419,-0.6644325,-1.0592906,0.033277724,0.037938327,-0.2716395,-0.07820719,0.06194997,8.3211975,3.1971571,0,0,0,0,0,0,0,0,0,0,0,0,0,0,0,0,0,0,0,0,0
420,-0.66191816,-1.0612233,0.034326,-0.082436554,-0.1427425,-0.101643,-0.3211223,8.51872,3.7382467,0,0,0,0,0,0,0,0,0,0,0,0,0,0,0,0,0,0,0,0,0
421,-0.6590932,-1.0625886,0.035921667,-0.09202393,-0.20452784,-0.07820719,-0.459986,8.552238,4.01358,0,0,0,0,0,0,0,0,0,0,0,0,0,0,0,0,0,0,0,0,0
422,-0.6555316,-1.0635471,0.038026907,-0.12504713,-0.28122687,-0.073946126,-0.6012439,8.618078,4.230255,0,0,0,0,0,0,0,0,0,0,0,0,0,0,0,0,0,0,0,0,0
423,-0.6302649,-1.0492283,0.023500917,-0.1080029,-0.25992158,-0.07075033,-0.9460089,8.852711,4.4026375,0,0,0,0,0,0,0,0,0,0,0,0,0,0,0,0,0,0,0,0,0
424,-0.624547,-1.0497806,0.027859585,-0.12504713,-0.2119847,0.032580312,-1.1507132,8.937705,4.6731825,0,0,0,0,0,0,0,0,0,0,0,0,0,0,0,0,0,0,0,0,0
425,-0.621189,-1.0493441,0.031042093,-0.20813775,-0.29933637,0.17745627,-0.99149877,8.840739,5.240608,0,0,0,0,0,0,0,0,0,0,0,0,0,0,0,0,0,0,0,0,0
426,-0.621698,-1.048699,0.03203551,-0.21771635,-0.51345026,0.277589,-0.42167878,8.460061,5.213075,0,0,0,0,0,0,0,0,0,0,0,0,0,0,0,0,0,0,0,0,0
427,-0.6236123,-1.0488541,0.031360112,-0.19321527,-0.5976062,0.2925027,0.00808043,8.244583,4.6588173,0,0,0,0,0,0,0,0,0,0,0,0,0,0,0,0,0,0,0,0,0
428,-0.6993286,-1.0210816,-0.11027467,-0.22730373,-0.55819136,0.32126483,0.13497312,8.37387,4.9592896,0,0,0,0,0,0,0,0,0,0,0,0,0,0,0,0,0,0,0,0,0
429,-0.70375574,-1.021227,-0.11131162,-0.35513547,-0.770179,0.313808,0.7897873,8.11769,4.8288054,0,0,0,0,0,0,0,0,0,0,0,0,0,0,0,0,0,0,0,0,0
430,-0.7109101,-1.0210601,-0.115045935,-0.46379244,-0.7392863,0.14230041,1.4410101,7.863905,4.6911387,0,0,0,0,0,0,0,0,0,0,0,0,0,0,0,0,0,0,0,0,0
431,-0.71909547,-1.0200518,-0.11934354,-0.39561552,-0.38242275,-0.08353564,1.7175405,7.746589,5.0155535,0,0,0,0,0,0,0,0,0,0,0,0,0,0,0,0,0,0,0,0,0
432,-0.66489476,-0.98857397,-0.08583269,-0.16658366,-0.052190766,-0.24865162,1.3129203,7.8220067,5.5506573,0,0,0,0,0,0,0,0,0,0,0,0,0,0,0,0,0,0,0,0,0
433,-0.6711886,-0.9874809,-0.08835905,-0.09201515,-0.113976106,-0.2965885,1.1692683,7.5071692,5.428553,0,0,0,0,0,0,0,0,0,0,0,0,0,0,0,0,0,0,0,0,0
434,-0.678669,-0.98509204,-0.090513155,0.121037744,-0.22902466,0.037904505,1.202787,7.2892966,6.055834,0,0,0,0,0,0,0,0,0,0,0,0,0,0,0,0,0,0,0,0,0
435,-0.6884217,-0.98460203,-0.0970152,0.43316022,0.17258003,-0.40524548,2.1305401,7.5466733,4.8276086,0,0,0,0,0,0,0,0,0,0,0,0,0,0,0,0,0,0,0,0,0
436,-0.6933188,-0.9839282,-0.09960298,0.77297956,0.631709,-0.5256204,1.2518682,7.813627,5.4345384,0,0,0,0,0,0,0,0,0,0,0,0,0,0,0,0,0,0,0,0,0
437,-0.5512729,-1.0964748,0.10823438,1.0020114,0.81599975,-0.48087928,0.8843582,9.094524,4.5295305,0,0,0,0,0,0,0,0,0,0,0,0,0,0,0,0,0,0,0,0,0
438,-0.5495016,-1.0993567,0.10491542,0.45020446,0.9928336,-0.28060955,0.19841947,10.035446,3.4341831,0,0,0,0,0,0,0,0,0,0,0,0,0,0,0,0,0,0,0,0,0
439,-0.55862325,-1.1003634,0.09497546,-0.6086684,1.0567495,0.122060396,1.3739725,8.027908,3.3228526,0,0,0,0,0,0,0,0,0,0,0,0,0,0,0,0,0,0,0,0,0
440,-0.5580868,-1.0952144,0.0971678,-0.93250877,1.0215958,-0.30724117,-1.9252374,10.633996,9.278429,0,0,0,0,0,0,0,0,0,0,0,0,0,0,0,0,0,0,0,0,0
441,-0.59129494,-1.0988849,0.15752643,0.38522333,0.446353,0.38411546,-2.6698341,10.489147,7.3115926,0,0,0,0,0,0,0,0,0,0,0,0,0,0,0,0,0,0,0,0,0
442,-0.586931,-1.0990229,0.15822724,0.2051742,-0.18642314,0.50023377,-0.9627684,10.027066,4.9377418,0,0,0,0,0,0,0,0,0,0,0,0,0,0,0,0,0,0,0,0,0
443,-0.57749104,-1.0981189,0.16239654,-0.014270282,-0.21518528,0.4757327,-2.084452,10.225785,5.427356,0,0,0,0,0,0,0,0,0,0,0,0,0,0,0,0,0,0,0,0,0
444,-0.5687232,-1.0964128,0.1663332,0.17002046,-0.25566533,0.8347268,-2.0102315,9.161562,5.3531356,0,0,0,0,0,0,0,0,0,0,0,0,0,0,0,0,0,0,0,0,0
445,-0.5661827,-1.0963669,0.16621655,0.33726698,-0.6977501,1.0573671,-0.7257424,8.794052,4.4828434,0,0,0,0,0,0,0,0,0,0,0,0,0,0,0,0,0,0,0,0,0
446,-0.89544773,-1.1442554,-0.23589206,0.49918717,-0.93743455,1.2320704,-0.008678981,8.388235,2.7757776,0,0,0,0,0,0,0,0,0,0,0,0,0,0,0,0,0,0,0,0,0
447,-0.8957374,-1.1483397,-0.24030626,0.2797427,-1.0290473,1.3449885,0.74549454,7.4796357,1.5176246,0,0,0,0,0,0,0,0,0,0,0,0,0,0,0,0,0,0,0,0,0
448,-0.90438783,-1.1511651,-0.25284064,-0.23584528,-0.96406615,1.3801422,1.7175405,7.7992616,1.4577695,0,0,0,0,0,0,0,0,0,0,0,0,0,0,0,0,0,0,0,0,0
449,-0.9242288,-1.1529686,-0.2776669,-0.94957244,-1.2868413,1.5505846,2.8021138,8.219444,0.21517888,0,0,0,0,0,0,0,0,0,0,0,0,0,0,0,0,0,0,0,0,0
450,-1.0382626,-0.7888936,-0.60232043,-2.8702443,-2.4543712,1.3002474,4.061464,7.7034936,3.2977135,0,0,0,0,0,0,0,0,0,0,0,0,0,0,0,0,0,0,0,0,0
451,-1.0392864,-0.7918902,-0.60357183,-4.2625446,-3.8370843,1.1969167,3.9142206,8.6635685,4.9928083,0,0,0,0,0,0,0,0,0,0,0,0,0,0,0,0,0,0,0,0,0
452,-1.0479307,-0.7851694,-0.6032597,-3.9866414,-4.2898216,1.7529848,5.926547,5.2386627,8.890569,0,0,0,0,0,0,0,0,0,0,0,0,0,0,0,0,0,0,0,0,0
453,-1.0617049,-0.77467424,-0.6087879,-1.1455811,-2.5598323,0.9295353,9.194633,3.1796496,7.6060796,0,0,0,0,0,0,0,0,0,0,0,0,0,0,0,0,0,0,0,0,0
454,-1.0804657,-0.91169035,-0.5688793,0.94233716,0.4111902,-0.5597043,7.679103,4.39351,5.8595095,0,0,0,0,0,0,0,0,0,0,0,0,0,0,0,0,0,0,0,0,0
455,-1.0739967,-0.9073534,-0.56992304,1.2981355,1.4157345,-0.9634395,5.205892,7.456891,7.2756796,0,0,0,0,0,0,0,0,0,0,0,0,0,0,0,0,0,0,0,0,0
456,-1.0680836,-0.90255463,-0.5690433,1.0957352,0.6540705,-0.73866874,4.230255,6.640468,7.2876506,0,0,0,0,0,0,0,0,0,0,0,0,0,0,0,0,0,0,0,0,0
457,-1.0465224,-0.90111536,-0.56262213,0.7591117,-0.286558,-0.38500094,1.6397289,7.3132386,6.4760165,0,0,0,0,0,0,0,0,0,0,0,0,0,0,0,0,0,0,0,0,0
458,-1.0445133,-0.89469326,-0.5619192,-0.0377061,-1.4540879,0.9998428,3.053505,3.9745245,5.2418056,0,0,0,0,0,0,0,0,0,0,0,0,0,0,0,0,0,0,0,0,0
459,-1.1653124,-0.70522153,-0.9208216,-1.1029793,-2.4639628,1.0349987,8.521862,0.8345289,4.2003274,0,0,0,0,0,0,0,0,0,0,0,0,0,0,0,0,0,0,0,0,0
460,-1.1834738,-0.6908666,-0.92550176,-1.0646298,-1.6788628,-0.9932648,8.294413,-0.113574944,3.6640265,0,0,0,0,0,0,0,0,0,0,0,0,0,0,0,0,0,0,0,0,0
461,-1.1733975,-0.6855478,-0.91555715,0.28825602,0.83303064,-2.6390984,2.4908676,2.7139773,5.4560866,0,0,0,0,0,0,0,0,0,0,0,0,0,0,0,0,0,0,0,0,0
462,-1.1296954,-0.6865501,-0.89432216,2.2153194,2.4532979,-2.9544165,-0.8382699,5.2087355,5.6931124,0,0,0,0,0,0,0,0,0,0,0,0,0,0,0,0,0,0,0,0,0
463,-1.1598246,-1.2740023,-0.53425837,3.5330515,2.92521,-2.701949,-1.8402433,6.5877957,3.218705,0,0,0,0,0,0,0,0,0,0,0,0,0,0,0,0,0,0,0,0,0
464,-1.1173717,-1.2743998,-0.5096944,3.8526309,3.0892608,-2.194883,-1.5146319,8.331971,1.8204911,0,0,0,0,0,0,0,0,0,0,0,0,0,0,0,0,0,0,0,0,0
465,-1.0739942,-1.2782063,-0.47968647,3.1431646,2.3606198,-1.3895432,-0.9567829,10.745327,0.62698156,0,0,0,0,0,0,0,0,0,0,0,0,0,0,0,0,0,0,0,0,0
466,-1.0884091,-1.2809575,-0.500739,1.1830782,0.98003715,-0.21136071,1.9198505,12.293179,0.07392098,0,0,0,0,0,0,0,0,0,0,0,0,0,0,0,0,0,0,0,0,0
467,-1.0999506,-1.2792501,-0.5128984,-0.013213806,0.18002357,-0.050505783,4.385878,12.440422,2.1844099,0,0,0,0,0,0,0,0,0,0,0,0,0,0,0,0,0,0,0,0,0
468,-0.97466904,-1.3322577,-0.375629,0.7260797,0.103324525,-0.6896644,2.0419548,12.654703,2.6776154,0,0,0,0,0,0,0,0,0,0,0,0,0,0,0,0,0,0,0,0,0
469,-0.97352546,-1.3364029,-0.38269052,0.86456406,-0.32171598,-0.64066225,0.2486977,11.934048,0.27862522,0,0,0,0,0,0,0,0,0,0,0,0,0,0,0,0,0,0,0,0,0
470,-0.9915946,-1.3395746,-0.40761545,0.010222011,-0.5614005,-0.4031083,0.74549454,9.830742,-0.043394905,0,0,0,0,0,0,0,0,0,0,0,0,0,0,0,0,0,0,0,0,0
471,-1.008898,-1.3433518,-0.43229452,-0.6257408,-0.46020037,-0.59166014,0.358831,8.488791,-0.025438393,0,0,0,0,0,0,0,0,0,0,0,0,0,0,0,0,0,0,0,0,0
472,-0.65980333,-1.2725081,-0.055246186,-0.67687356,0.36324903,-0.49259052,-0.4587889,8.031499,1.5499463,0,0,0,0,0,0,0,0,0,0,0,0,0,0,0,0,0,0,0,0,0
473,-0.64113224,-1.2715964,-0.04746622,-0.25502884,0.9267739,-0.3945862,-1.0022727,8.543859,2.8906994,0,0,0,0,0,0,0,0,0,0,0,0,0,0,0,0,0,0,0,0,0
474,-0.62163204,-1.2711967,-0.03823894,-0.35303316,0.29081106,-0.12400903,-1.2740146,9.585336,2.9002762,0,0,0,0,0,0,0,0,0,0,0,0,0,0,0,0,0,0,0,0,0
475,-0.60500896,-1.2728555,-0.029801188,-0.79618317,-0.4921583,0.23605035,-0.8406641,10.20304,2.0826561,0,0,0,0,0,0,0,0,0,0,0,0,0,0,0,0,0,0,0,0,0
476,-0.59813863,-1.2729706,-0.027739244,-1.2201525,-0.42397872,0.57373756,-0.22535424,10.230574,3.0690672,0,0,0,0,0,0,0,0,0,0,0,0,0,0,0,0,0,0,0,0,0
477,-0.7923075,-1.0977366,-0.23704405,-1.1306703,-0.0053297845,0.78359467,0.9621698,9.494356,4.262577,0,0,0,0,0,0,0,0,0,0,0,0,0,0,0,0,0,0,0,0,0
478,-0.80443203,-1.0951632,-0.24090526,-0.6193434,0.52304137,0.76548517,2.4178445,8.444499,5.270536,0,0,0,0,0,0,0,0,0,0,0,0,0,0,0,0,0,0,0,0,0
479,-0.8200671,-1.0909951,-0.24729861,-0.48085904,0.21944101,0.2786593,3.3934817,7.827992,5.405808,0,0,0,0,0,0,0,0,0,0,0,0,0,0,0,0,0,0,0,0,0
480,-0.8350665,-1.0874801,-0.25493425,-0.5788634,-0.30786487,-0.2209497,3.6855743,8.145224,5.0646343,0,0,0,0,0,0,0,0,0,0,0,0,0,0,0,0,0,0,0,0,0
481,-0.6744293,-1.081798,-0.07687009,0.007032077,0.42716756,-0.7003187,3.3432033,8.244583,4.347571,0,0,0,0,0,0,0,0,0,0,0,0,0,0,0,0,0,0,0,0,0
482,-0.67844456,-1.0841653,-0.08325165,0.29252294,1.2452906,-1.0497254,1.4505869,9.67871,3.470096,0,0,0,0,0,0,0,0,0,0,0,0,0,0,0,0,0,0,0,0,0
483,-0.6673042,-1.087152,-0.078780346,-0.029186914,1.1600695,-0.84732515,-0.5234324,10.672304,3.705925,0,0,0,0,0,0,0,0,0,0,0,0,0,0,0,0,0,0,0,0,0
484,-0.6556055,-1.0887035,-0.07264937,-0.7248046,0.2226368,-0.28273502,-1.0238205,10.545411,4.4170027,0,0,0,0,0,0,0,0,0,0,0,0,0,0,0,0,0,0,0,0,0
485,-0.6539847,-1.0874066,-0.07043025,-0.9666196,-0.40054289,0.14230548,-0.21098903,9.047838,5.5051675,0,0,0,0,0,0,0,0,0,0,0,0,0,0,0,0,0,0,0,0,0
486,-0.68295455,-0.96927685,-0.1507782,-0.5522317,-0.38562918,0.14656654,0.5790975,8.239795,5.6332574,0,0,0,0,0,0,0,0,0,0,0,0,0,0,0,0,0,0,0,0,0
487,-0.6856161,-0.97032106,-0.15001538,-0.15914917,-0.22903532,-0.028136829,0.5779004,8.399009,5.1089272,0,0,0,0,0,0,0,0,0,0,0,0,0,0,0,0,0,0,0,0,0
488,-0.6837481,-0.97232366,-0.14728385,0.04857739,-0.06285407,-0.114423245,0.06434417,8.75814,4.788104,0,0,0,0,0,0,0,0,0,0,0,0,0,0,0,0,0,0,0,0,0
489,-0.6800505,-0.9746313,-0.14383747,0.099710084,-0.091616206,-0.06968214,-0.11522096,8.774899,4.6013565,0,0,0,0,0,0,0,0,0,0,0,0,0,0,0,0,0,0,0,0,0
490,-0.6658902,-0.9840616,-0.16216709,0.02940263,-0.22690478,-0.055833705,0.085891984,8.725818,4.1847653,0,0,0,0,0,0,0,0,0,0,0,0,0,0,0,0,0,0,0,0,0
491,-0.6639594,-0.9871892,-0.16005623,0.0155541925,-0.1278352,-0.08033478,0.22595279,8.697087,3.9860466,0,0,0,0,0,0,0,0,0,0,0,0,0,0,0,0,0,0,0,0,0
492,-0.66186404,-0.990216,-0.15782854,0.032590967,0.034081537,-0.06541922,0.19841947,8.839542,4.073435,0,0,0,0,0,0,0,0,0,0,0,0,0,0,0,0,0,0,0,0,0
493,-0.6576752,-0.99231017,-0.15414879,-0.027063841,0.0010583402,0.05921672,-0.116418056,8.636035,4.4493246,0,0,0,0,0,0,0,0,0,0,0,0,0,0,0,0,0,0,0,0,0
494,-0.65578693,-0.9949801,-0.15228716,-0.16874401,-0.25140932,0.008084025,0.2486977,8.545055,4.0674496,0,0,0,0,0,0,0,0,0,0,0,0,0,0,0,0,0,0,0,0,0
495,-0.6452447,-0.96498954,-0.18274245,-0.27207467,-0.25034407,0.029389314,0.21517888,8.592939,4.145261,0,0,0,0,0,0,0,0,0,0,0,0,0,0,0,0,0,0,0,0,0
496,-0.64452946,-0.9676132,-0.18074733,-0.24544305,-0.07457543,0.02619352,0.3612252,8.481609,4.3427825,1,0,0,0,0,0,0,0,0,0,0,0,0,0,0,0,0,0,0,0,0
497,-0.6431218,-0.9694215,-0.17786421,-0.1453082,0.068169996,0.0038229676,0.17567454,8.529493,4.798878,1,0,0,0,0,0,0,0,0,0,0,0,0,0,0,0,0,0,0,0,0
498,-0.64167905,-0.97139263,-0.17524728,-0.09843656,0.048995238,-0.051570784,0.22236149,8.602516,4.725855,1,0,0,0,0,0,0,0,0,0,0,0,0,0,0,0,0,0,0,0,0
499,-0.61890185,-0.9577726,-0.15850164,-0.13145976,-0.03516065,-0.06541922,0.12180501,8.74138,4.8144403,1,0,0,0,0,0,0,0,0,0,0,0,0,0,0,0,0,0,0,0,0
500,-0.61752695,-0.95983624,-0.15593351,-0.09204497,-0.013855361,-0.03665708,0.14814124,8.804827,4.9209824,1,0,0,0,0,0,0,0,0,0,0,0,0,0,0,0,0,0,0,0,0
501,-0.6148213,-0.96182245,-0.152733,-0.027063841,0.03940786,0.05921672,-0.02064999,8.983194,5.044284,1,0,0,0,0,0,0,0,0,0,0,0,0,0,0,0,0,0,0,0,0
502,-0.60979116,-0.9637989,-0.14831522,-0.028129106,-0.0277038,0.18278739,-0.3450643,9.05502,5.0550575,1,0,0,0,0,0,0,0,0,0,0,0,0,0,0,0,0,0,0,0,0
503,-0.5971056,-0.9643261,-0.13976821,0.35962716,0.29400605,0.6387206,-1.860594,10.296414,6.493973,1,0,0,0,0,0,0,0,0,0,0,0,0,0,0,0,0,0,0,0,0
504,-0.8269068,-1.0364255,-0.2628586,1.6294223,1.236765,1.6613744,-4.3709145,11.914894,6.564602,1,0,0,0,0,0,0,0,0,0,0,0,0,0,0,0,0,0,0,0,0
505,-0.7836873,-1.0340688,-0.2380466,2.7436888,2.2231998,4.0145435,-8.487744,13.402891,5.720646,1,0,0,0,0,0,0,0,0,0,0,0,0,0,0,0,0,0,0,0,0
506,-0.7216647,-1.0223311,-0.21734214,2.8353016,2.2764633,7.073983,-7.376835,4.945373,7.205051,1,0,0,0,0,0,0,0,0,0,0,0,0,0,0,0,0,0,0,0,0
507,-0.6695198,-1.0207016,-0.19335616,0.0645489,-2.397917,7.6066155,-0.57849896,0.954239,0.3863643,1,0,0,0,0,0,0,0,0,0,0,0,0,0,0,0,0,0,0,0,0
508,-1.3396494,-0.1778659,-1.3263613,-2.0191083,-5.1910405,6.827907,7.738958,1.1182418,-5.0472765,1,0,0,0,0,0,0,0,0,0,0,0,0,0,0,0,0,0,0,0,0
509,-1.3570497,-0.17565747,-1.3390819,-2.434557,-3.5462701,4.5333266,14.876073,1.0871172,-6.142624,1,0,0,0,0,0,0,0,0,0,0,0,0,0,0,0,0,0,0,0,0
510,-1.3778914,-0.17323537,-1.3372701,-0.24224272,1.4029485,2.2898793,13.248015,0.7627029,4.4241853,1,0,0,0,0,0,0,0,0,0,0,0,0,0,0,0,0,0,0,0,0
511,-1.3980701,-0.17290042,-1.3336791,1.7540628,2.2935095,0.41075292,12.147881,2.092682,5.324405,1,0,0,0,0,0,0,0,0,0,0,0,0,0,0,0,0,0,0,0,0
512,-1.4100639,-0.17795438,-1.335047,1.7370186,1.4657991,-0.4840692,10.3642,4.765808,1.7654245,1,0,0,0,0,0,0,0,0,0,0,0,0,0,0,0,0,0,0,0,0
513,-1.6140214,-0.3215762,-1.1931107,1.271498,1.4072095,-0.49472186,8.543409,5.8527756,1.4290391,1,0,0,0,0,0,0,0,0,0,0,0,0,0,0,0,0,0,0,0,0
514,-1.6226122,-0.3243846,-1.1944903,0.4096991,0.8255751,-0.3253448,9.079711,4.745457,2.8954878,1,0,0,0,0,0,0,0,0,0,0,0,0,0,0,0,0,0,0,0,0
515,-1.6340091,-0.32452682,-1.194965,-0.19963215,-0.1289018,-0.6832737,9.736919,3.5711014,3.5826235,1,0,0,0,0,0,0,0,0,0,0,0,0,0,0,0,0,0,0,0,0
516,-1.6446764,-0.3256939,-1.1947234,-0.26887435,-0.4346327,-1.1029879,8.791209,3.8248868,3.5922003,1,0,0,0,0,0,0,0,0,0,0,0,0,0,0,0,0,0,0,0,0
517,-1.5724559,-0.49228927,-1.2057014,-0.07819201,-0.40587053,-1.6856874,10.248081,3.0240264,3.56347,1,0,0,0,0,0,0,0,0,0,0,0,0,0,0,0,0,0,0,0,0
518,-1.5816588,-0.49244708,-1.2055908,-0.044103544,-0.53796333,-2.6731875,8.252514,4.8388314,3.206734,1,0,0,0,0,0,0,0,0,0,0,0,0,0,0,0,0,0,0,0,0
519,-1.5847976,-0.49698994,-1.2027311,0.107164,-0.37817368,-3.017268,6.2988453,6.318448,3.5084033,1,0,0,0,0,0,0,0,0,0,0,0,0,0,0,0,0,0,0,0,0
520,-1.588253,-0.50209546,-1.2005323,-0.3242681,-1.0705955,-3.5744014,6.018724,6.343587,3.1181483,1,0,0,0,0,0,0,0,0,0,0,0,0,0,0,0,0,0,0,0,0
521,-1.5944384,-0.5094885,-1.2055987,-0.21561112,-0.21305768,-4.239126,5.6631846,6.782923,0.6652888,1,0,0,0,0,0,0,0,0,0,0,0,0,0,0,0,0,0,0,0,0
522,-1.1542319,-1.0198852,-0.89913046,-0.6619569,0.42610097,-4.4127645,1.3476362,7.911789,1.972523,1,0,0,0,0,0,0,0,0,0,0,0,0,0,0,0,0,0,0,0,0
523,-1.1367022,-1.0217938,-0.8831368,-0.66728324,0.44527572,-3.6756015,0.3899556,8.018332,3.908235,1,0,0,0,0,0,0,0,0,0,0,0,0,0,0,0,0,0,0,0,0
524,-1.0945486,-1.0247484,-0.8524723,-0.5106894,0.4133178,-2.5645306,-2.8314428,11.025449,3.7238815,1,0,0,0,0,0,0,0,0,0,0,0,0,0,0,0,0,0,0,0,0
525,-1.064449,-1.0300319,-0.82596487,-0.05901725,0.27802923,-1.2819523,-1.3901334,10.539426,2.7171197,1,0,0,0,0,0,0,0,0,0,0,0,0,0,0,0,0,0,0,0,0
526,-0.8663045,-1.0543966,-0.66558725,-0.4116227,-0.31425914,-0.36901984,-0.26844987,9.807997,2.7626095,1,0,0,0,0,0,0,0,0,0,0,0,0,0,0,0,0,0,0,0,0
527,-0.8658769,-1.0584463,-0.6592044,-0.44358063,-0.39095816,0.024062725,0.9968857,9.04305,2.7614124,0,0,0,0,0,0,0,0,0,0,0,0,0,0,0,0,0,0,0,0,0
528,-0.87126905,-1.0622394,-0.657655,-0.20389614,-0.16086106,0.03791116,1.6074072,8.748563,2.4441807,0,0,0,0,0,0,0,0,0,0,0,0,0,0,0,0,0,0,0,0,0
529,-0.8728991,-1.0660944,-0.6536722,-0.09630443,0.118238226,-0.041983668,1.3045406,9.020305,2.6428995,0,0,0,0,0,0,0,0,0,0,0,0,0,0,0,0,0,0,0,0,0
530,-0.8532218,-1.059689,-0.6122111,-0.10482655,0.14700037,-0.0089604715,1.0280104,9.17473,2.7003603,0,0,0,0,0,0,0,0,0,0,0,0,0,0,0,0,0,0,0,0,0
531,-0.85342747,-1.0638186,-0.6078265,-0.35090262,-0.009593505,0.058151186,1.0866683,9.025093,2.6213515,0,0,0,0,0,0,0,0,0,0,0,0,0,0,0,0,0,0,0,0,0
532,-0.8542443,-1.0654452,-0.6015032,-0.489387,0.050061304,0.08265227,1.1561002,8.868273,3.850774,0,0,0,0,0,0,0,0,0,0,0,0,0,0,0,0,0,0,0,0,0
533,-0.8571497,-1.0658762,-0.59569365,-0.22200564,0.16510986,0.033650104,1.3775638,8.566604,4.2853217,0,0,0,0,0,0,0,0,0,0,0,0,0,0,0,0,0,0,0,0,0
534,-0.8586049,-1.0672284,-0.59021574,-0.15382871,0.14060877,-0.14957538,1.3153145,8.895806,3.9453452,0,0,0,0,0,0,0,0,0,0,0,0,0,0,0,0,0,0,0,0,0
535,-0.78336126,-1.0660669,-0.50155056,-0.14637186,0.13208666,-0.20390387,0.70718735,9.391406,4.0889974,0,0,0,0,0,0,0,0,0,0,0,0,0,0,0,0,0,0,0,0,0
536,-0.78214747,-1.0672742,-0.49495083,-0.08352126,0.11930349,-0.13785747,0.73711485,9.068189,4.254197,0,0,0,0,0,0,0,0,0,0,0,0,0,0,0,0,0,0,0,0,0
537,-0.78179944,-1.0692118,-0.48990005,-0.07180335,-0.011724034,-0.1847291,0.9442133,9.134029,3.8184524,0,0,0,0,0,0,0,0,0,0,0,0,0,0,0,0,0,0,0,0,0
538,-0.7818634,-1.0713723,-0.48557973,-0.103761286,0.16297933,-0.17940278,1.0196307,9.078962,3.6293106,0,0,0,0,0,0,0,0,0,0,0,0,0,0,0,0,0,0,0,0,0
539,-0.7162842,-1.0709386,-0.39121497,-0.11334866,0.2418089,-0.20816492,0.84126264,9.028685,4.0566754,0,0,0,0,0,0,0,0,0,0,0,0,0,0,0,0,0,0,0,0,0
540,-0.71573275,-1.0723209,-0.3867757,0.0038304245,0.32383427,-0.13998799,0.6928221,8.950872,4.054281,0,0,0,0,0,0,0,0,0,0,0,0,0,0,0,0,0,0,0,0,0
541,-0.71366704,-1.0730914,-0.3808095,-0.049432795,0.14273931,-0.08246372,0.394744,9.019108,4.4505215,0,0,0,0,0,0,0,0,0,0,0,0,0,0,0,0,0,0,0,0,0
542,-0.71404845,-1.0737067,-0.3761003,-0.07180335,-0.15873052,-0.024939438,0.64254385,8.800038,4.3894696,0,0,0,0,0,0,0,0,0,0,0,0,0,0,0,0,0,0,0,0,0
543,-0.71540785,-1.074829,-0.37238196,0.015533419,-0.17791247,-0.09098237,0.7814076,8.75814,4.0590696,0,0,0,0,0,0,0,0,0,0,0,0,0,0,0,0,0,0,0,0,0
544,-0.6915938,-1.0980657,-0.35298163,0.1689315,0.045793053,-0.16448562,0.5228338,8.979603,3.8483799,0,0,0,0,0,0,0,0,0,0,0,0,0,0,0,0,0,0,0,0,0
545,-0.68795586,-1.0996981,-0.3468387,0.16786623,0.07668573,-0.1527677,0.17328034,9.17114,3.777751,0,0,0,0,0,0,0,0,0,0,0,0,0,0,0,0,0,0,0,0,0
546,-0.6844498,-1.1013247,-0.34087297,0.052817676,-0.062863916,-0.07926446,0.18285716,9.172337,3.7633858,0,0,0,0,0,0,0,0,0,0,0,0,0,0,0,0,0,0,0,0,0
547,-0.68270046,-1.1034235,-0.33648324,-0.046251915,-0.1651293,-0.08032972,0.41629183,9.009531,3.4126353,0,0,0,0,0,0,0,0,0,0,0,0,0,0,0,0,0,0,0,0,0
548,-0.65450805,-1.1032112,-0.3163892,-0.043056123,-0.06073339,-0.08032972,0.3660136,9.039458,3.5969887,0,0,0,0,0,0,0,0,0,0,0,0,0,0,0,0,0,0,0,0,0
549,-0.6524833,-1.1051263,-0.3117378,-0.010032927,0.0106393285,-0.03771915,0.29777884,9.120861,3.5443163,0,0,0,0,0,0,0,0,0,0,0,0,0,0,0,0,0,0,0,0,0
550,-0.64924884,-1.10693,-0.3062933,-0.05157824,-0.0064049023,0.026196716,0.14215572,9.129241,3.5957916,0,0,0,0,0,0,0,0,0,0,0,0,0,0,0,0,0,0,0,0,0
551,-0.6499142,-1.108411,-0.30317134,-0.10271093,-0.05860286,0.08585153,0.5479729,8.913762,3.620931,0,0,0,0,0,0,0,0,0,0,0,0,0,0,0,0,0,0,0,0,0
552,-0.6518799,-1.1092331,-0.30052483,-0.05370877,0.0106393285,0.07093782,0.679654,8.920945,3.9393597,0,0,0,0,0,0,0,0,0,0,0,0,0,0,0,0,0,0,0,0,0
553,-0.6690782,-1.1079924,-0.30630398,0.012337626,0.04685832,0.07306835,0.27623102,9.296835,3.871125,1,0,0,0,0,0,0,0,0,0,0,0,0,0,0,0,0,0,0,0,0
554,-0.65235287,-1.1083195,-0.29274076,0.24136947,0.2183659,0.490652,-1.8701708,10.752509,4.7952867,1,0,0,0,0,0,0,0,0,0,0,0,0,0,0,0,0,0,0,0,0
555,-0.63248205,-1.1077542,-0.27790338,0.73565215,0.15871109,1.546329,-2.5656865,11.058968,5.3232083,1,0,0,0,0,0,0,0,0,0,0,0,0,0,0,0,0,0,0,0,0
556,-0.61419344,-1.1056426,-0.26450408,0.9263345,-0.5837782,2.7990801,-2.4459763,10.017489,5.915773,1,0,0,0,0,0,0,0,0,0,0,0,0,0,0,0,0,0,0,0,0
557,-1.6672353,-0.8784884,-1.2045213,1.5899942,-1.0524945,4.040113,-1.4511855,7.4449196,4.4600983,1,0,0,0,0,0,0,0,0,0,0,0,0,0,0,0,0,0,0,0,0
558,-1.6626325,-0.8814712,-1.1966027,1.7210218,-0.9800566,4.6142907,2.3232734,5.320066,2.2179286,1,0,0,0,0,0,0,0,0,0,0,0,0,0,0,0,0,0,0,0,0
559,-1.6691166,-0.88343877,-1.2067649,0.63979167,-1.9952472,4.226531,4.098574,6.164022,-0.55216277,1,0,0,0,0,0,0,0,0,0,0,0,0,0,0,0,0,0,0,0,0
560,-1.6775727,-0.8815389,-1.2201524,0.29464602,-1.4338528,3.983651,5.6105123,5.9186163,-1.7684172,1,0,0,0,0,0,0,0,0,0,0,0,0,0,0,0,0,0,0,0,0
561,-1.6884128,-0.8733331,-1.2317594,0.32660395,-0.2556704,3.4616714,9.011476,4.71553,-2.1071968,1,0,0,0,0,0,0,0,0,0,0,0,0,0,0,0,0,0,0,0,0
562,-1.8563912,-0.47176832,-1.3646659,-0.5309339,-0.29082412,2.232356,11.329063,4.2785883,-1.1997943,1,0,0,0,0,0,0,0,0,0,0,0,0,0,0,0,0,0,0,0,0
563,-1.8630334,-0.469929,-1.3677496,-0.61508983,0.33555138,1.0680221,11.230901,4.489278,0.58388597,1,0,0,0,0,0,0,0,0,0,0,0,0,0,0,0,0,0,0,0,0
564,-1.8688841,-0.46843982,-1.3666,0.17427114,1.6884372,0.13378523,10.327089,4.4617443,2.7530327,1,0,0,0,0,0,0,0,0,0,0,0,0,0,0,0,0,0,0,0,0
565,-1.8757821,-0.46872717,-1.3611758,0.6845328,2.0847156,-0.4531755,8.731355,5.147683,4.4948144,1,0,0,0,0,0,0,0,0,0,0,0,0,0,0,0,0,0,0,0,0
566,-1.954284,-0.57004046,-1.1858346,0.6951854,1.470058,-0.53733134,7.2481465,6.02037,4.3032784,1,0,0,0,0,0,0,0,0,0,0,0,0,0,0,0,0,0,0,0,0
567,-1.9541821,-0.5714145,-1.186016,0.5758758,1.0258427,-0.24118786,7.661146,6.116138,3.0235775,1,0,0,0,0,0,0,0,0,0,0,0,0,0,0,0,0,0,0,0,0
568,-1.9551802,-0.57183284,-1.1865356,0.13805215,0.5816274,-0.14318353,7.918523,5.691167,2.969708,1,0,0,0,0,0,0,0,0,0,0,0,0,0,0,0,0,0,0,0,0
569,-1.9586744,-0.5705574,-1.1865485,0.058157314,0.40266302,-0.26568893,8.558971,5.1393037,3.4545338,1,0,0,0,0,0,0,0,0,0,0,0,0,0,0,0,0,0,0,0,0
570,-1.9638293,-0.5675811,-1.1881194,0.15403111,0.24926496,-0.77701586,10.066122,4.7358804,3.1768064,1,0,0,0,0,0,0,0,0,0,0,0,0,0,0,0,0,0,0,0,0
571,-1.9290794,-0.7014852,-1.1278807,0.37134504,0.50066733,-1.7570591,10.384551,4.297742,3.3659482,1,0,0,0,0,0,0,0,0,0,0,0,0,0,0,0,0,0,0,0,0
572,-1.9342597,-0.6975707,-1.1293244,0.6749454,0.7616571,-2.8169973,8.724172,5.183596,3.3910875,1,0,0,0,0,0,0,0,0,0,0,0,0,0,0,0,0,0,0,0,0
573,-1.9346058,-0.6981036,-1.1286556,0.39051983,0.27589655,-3.6670783,6.1575875,6.1245174,3.1660326,1,0,0,0,0,0,0,0,0,0,0,0,0,0,0,0,0,0,0,0,0
574,-1.9313834,-0.7032964,-1.1290874,-0.26568308,-0.52092123,-4.162426,4.1428666,6.451326,1.8528129,1,0,0,0,0,0,0,0,0,0,0,0,0,0,0,0,0,0,0,0,0
575,-1.1565915,-1.0787182,-0.6376892,-1.2084421,-1.0088123,-4.2529736,1.2123638,6.7314477,3.1612442,1,0,0,0,0,0,0,0,0,0,0,0,0,0,0,0,0,0,0,0,0
576,-1.1224569,-1.0824792,-0.6170361,-1.1733017,-0.99710083,-3.7267299,-1.0693103,8.857499,2.5650878,1,0,0,0,0,0,0,0,0,0,0,0,0,0,0,0,0,0,0,0,0
577,-1.0796174,-1.0839401,-0.58917576,-0.83028656,0.023422502,-2.667857,-3.3701382,10.912921,3.4341831,0,0,0,0,0,0,0,0,0,0,0,0,0,0,0,0,0,0,0,0,0
578,-1.0497922,-1.0842414,-0.5692703,-0.4031155,-0.15234613,-1.261708,-1.9312229,9.581745,4.4912233,0,0,0,0,0,0,0,0,0,0,0,0,0,0,0,0,0,0,0,0,0
579,-1.0346998,-1.0846208,-0.5557086,-0.4542482,-0.8564859,-0.53839344,-0.49589902,9.04305,4.5391073,0,0,0,0,0,0,0,0,0,0,0,0,0,0,0,0,0,0,0,0,0
580,-0.8773174,-1.0793092,-0.5482909,-0.12401622,-0.93957657,-0.30190474,0.6485294,9.033473,2.8799253,0,0,0,0,0,0,0,0,0,0,0,0,0,0,0,0,0,0,0,0,0
581,-0.8754213,-1.0848888,-0.5451673,0.071992435,-0.3121358,-0.24118465,0.7849989,9.520693,1.8983027,0,0,0,0,0,0,0,0,0,0,0,0,0,0,0,0,0,0,0,0,0
582,-0.87172526,-1.0895157,-0.5400774,-0.037729803,0.23860592,-0.2518373,0.7000047,9.386618,2.3400328,0,0,0,0,0,0,0,0,0,0,0,0,0,0,0,0,0,0,0,0,0
583,-0.8634217,-1.0915751,-0.5296333,-0.22734687,0.31850076,-0.11761398,0.066738375,9.394997,3.7334583,0,0,0,0,0,0,0,0,0,0,0,0,0,0,0,0,0,0,0,0,0
584,-0.826366,-1.0645977,-0.46448252,-0.18899734,0.15871109,0.038979888,0.28580782,8.956859,4.6743793,0,0,0,0,0,0,0,0,0,0,0,0,0,0,0,0,0,0,0,0,0
585,-0.82785827,-1.0653274,-0.46020442,-0.052643504,-0.0032091092,0.0070219566,1.083077,8.604911,4.2314525,0,0,0,0,0,0,0,0,0,0,0,0,0,0,0,0,0,0,0,0,0
586,-0.82868934,-1.066752,-0.45654142,6.197176E-4,0.06390255,-0.1527677,1.1273698,8.887426,3.9644988,0,0,0,0,0,0,0,0,0,0,0,0,0,0,0,0,0,0,0,0,0
587,-0.82439154,-1.0686533,-0.4499718,0.102885105,0.23114906,-0.16874668,0.51804537,9.359084,4.0231566,0,0,0,0,0,0,0,0,0,0,0,0,0,0,0,0,0,0,0,0,0
588,-0.8187475,-1.0705523,-0.44264618,0.10714616,0.17255951,-0.029197033,0.33608606,9.321974,4.0063972,0,0,0,0,0,0,0,0,0,0,0,0,0,0,0,0,0,0,0,0,0
589,-0.8260211,-1.084433,-0.42714325,-0.0036413402,-0.0394281,-0.004695952,0.75507134,9.032275,3.6759975,0,0,0,0,0,0,0,0,0,0,0,0,0,0,0,0,0,0,0,0,0
590,-0.82498056,-1.0861844,-0.4233882,-0.070753,-0.047950216,-0.019609654,0.8963293,8.971224,3.6724062,0,0,0,0,0,0,0,0,0,0,0,0,0,0,0,0,0,0,0,0,0
591,-0.82343316,-1.0873526,-0.4189385,0.04429556,0.13527526,-0.08885184,0.8017583,8.849119,3.9369655,0,0,0,0,0,0,0,0,0,0,0,0,0,0,0,0,0,0,0,0,0
592,-0.8193835,-1.0889401,-0.41301394,0.11247248,0.17895111,-0.097373955,0.47255555,9.028685,3.8316205,0,0,0,0,0,0,0,0,0,0,0,0,0,0,0,0,0,0,0,0,0
593,-0.8089448,-1.1018052,-0.38922495,0.049618684,0.063901216,-0.015348064,0.2463035,9.2609215,3.6975453,0,0,0,0,0,0,0,0,0,0,0,0,0,0,0,0,0,0,0,0,0
594,-0.8050821,-1.103584,-0.383949,-0.08780043,-0.09375792,0.0783952,0.45459905,9.096919,3.6053684,0,0,0,0,0,0,0,0,0,0,0,0,0,0,0,0,0,0,0,0,0
595,-0.8041451,-1.1049638,-0.38048843,-0.14425944,-0.12358532,0.07413415,0.7849989,8.912565,3.6664207,0,0,0,0,0,0,0,0,0,0,0,0,0,0,0,0,0,0,0,0,0
596,-0.80201715,-1.1061077,-0.37608454,-0.021754032,0.10438126,0.019805662,0.61620766,8.916157,3.8112698,0,0,0,0,0,0,0,0,0,0,0,0,0,0,0,0,0,0,0,0,0
597,-0.7983803,-1.107239,-0.3706273,0.036835514,0.12888235,0.028327778,0.4031237,9.047838,3.8914757,0,0,0,0,0,0,0,0,0,0,0,0,0,0,0,0,0,0,0,0,0
598,-0.8078797,-1.1111225,-0.36444673,-0.059038285,-0.057538927,0.07732994,0.46657005,9.104101,3.6065655,0,0,0,0,0,0,0,0,0,0,0,0,0,0,0,0,0,0,0,0,0
599,-0.8068995,-1.1123321,-0.36125115,-0.027080353,0.026616963,0.113548934,0.76105684,8.876653,3.6664207,0,0,0,0,0,0,0,0,0,0,0,0,0,0,0,0,0,0,0,0,0
600,-0.8070216,-1.112846,-0.358283,-0.07288672,-0.03410311,0.06987309,0.86041623,8.816797,3.9812582,0,0,0,0,0,0,0,0,0,0,0,0,0,0,0,0,0,0,0,0,0
601,-0.80840904,-1.1130153,-0.3559412,0.032574456,0.031943284,-0.001499626,1.0028713,8.703073,4.0770264,0,0,0,0,0,0,0,0,0,0,0,0,0,0,0,0,0,0,0,0,0
602,-0.8050535,-1.1305041,-0.33684075,0.12525246,0.14166552,-0.052632317,0.72155255,9.088539,3.777751,0,0,0,0,0,0,0,0,0,0,0,0,0,0,0,0,0,0,0,0,0
603,-0.8034839,-1.13108,-0.33365873,0.07092398,0.13527393,-0.0100217415,0.73232645,9.131635,3.9752727,0,0,0,0,0,0,0,0,0,0,0,0,0,0,0,0,0,0,0,0,0
604,-0.8010428,-1.1314582,-0.32978037,-0.09845307,-0.12358532,0.010218283,0.5743091,9.2130375,4.0830116,0,0,0,0,0,0,0,0,0,0,0,0,0,0,0,0,0,0,0,0,0
605,-0.8008886,-1.1314077,-0.32713047,-0.048385642,-0.12252006,0.02619725,0.8245032,8.892215,4.1249104,0,0,0,0,0,0,0,0,0,0,0,0,0,0,0,0,0,0,0,0,0
606,-0.8013368,-1.1313481,-0.325064,0.051749215,-0.05327787,-0.07606813,0.8939351,8.774899,3.9848495,0,0,0,0,0,0,0,0,0,0,0,0,0,0,0,0,0,0,0,0,0
607,-0.77571166,-1.143426,-0.30694887,0.11566508,0.038334873,-0.12720083,0.44981065,9.105299,3.789722,0,0,0,0,0,0,0,0,0,0,0,0,0,0,0,0,0,0,0,0,0
608,-0.7698782,-1.1446437,-0.30179355,0.07518503,0.0010506171,-0.06754602,0.17687166,9.373449,3.5933974,0,0,0,0,0,0,0,0,0,0,0,0,0,0,0,0,0,0,0,0,0
609,-0.7622027,-1.1462415,-0.29561546,0.0038155108,-0.022383869,0.06987256,-0.027832596,9.4596405,3.468899,0,0,0,0,0,0,0,0,0,0,0,0,0,0,0,0,0,0,0,0,0
610,-0.7583342,-1.1469644,-0.29146355,-0.04199086,-0.038362835,0.16361582,0.32291797,8.977209,3.659238,0,0,0,0,0,0,0,0,0,0,0,0,0,0,0,0,0,0,0,0,0
611,-0.7917732,-1.1325364,-0.33305812,-0.01322872,0.018096179,0.212618,-0.26844987,9.4835825,3.5993829,0,0,0,0,0,0,0,0,0,0,0,0,0,0,0,0,0,0,0,0,0
612,-0.7804823,-1.1325108,-0.32353488,0.48851082,0.6370148,0.6163532,-0.6000468,9.79842,4.8790836,0,0,0,0,0,0,0,0,0,0,0,0,0,0,0,0,0,0,0,0,0
613,-0.76618105,-1.1319193,-0.31241992,1.0584273,0.8021308,1.0563074,-1.1974001,10.297611,5.0634375,1,0,0,0,0,0,0,0,0,0,0,0,0,0,0,0,0,0,0,0,0
614,-0.74660456,-1.1346353,-0.29787242,1.3258086,0.907592,1.9010621,-1.3757682,10.912921,3.1229367,1,0,0,0,0,0,0,0,0,0,0,0,0,0,0,0,0,0,0,0,0
615,-0.7294723,-1.1373006,-0.28522733,1.1244737,0.8234361,2.6158545,-1.0130466,9.877429,2.9158385,1,0,0,0,0,0,0,0,0,0,0,0,0,0,0,0,0,0,0,0,0
616,-1.5386775,-1.0369409,-0.91441536,0.65256155,0.27056384,3.536243,-0.1666963,8.474426,2.7650037,1,0,0,0,0,0,0,0,0,0,0,0,0,0,0,0,0,0,0,0,0
617,-1.497662,-1.0420841,-0.8900088,0.58758044,0.053249907,4.22973,-0.66947865,7.827992,2.1197662,1,0,0,0,0,0,0,0,0,0,0,0,0,0,0,0,0,0,0,0,0
618,-1.4734652,-1.0470396,-0.8789217,0.187041,-0.35900742,4.993525,0.58747727,6.1807814,1.6840216,1,0,0,0,0,0,0,0,0,0,0,0,0,0,0,0,0,0,0,0,0
619,-1.4900934,-1.0345589,-0.8940215,-0.68541056,-1.1132146,4.7730155,7.505523,3.3855507,-0.4743512,1,0,0,0,0,0,0,0,0,0,0,0,0,0,0,0,0,0,0,0,0
620,-1.7027062,-0.4826994,-1.2339431,-1.3320261,-0.98644817,3.1591394,12.217312,3.0874727,-2.6602573,1,0,0,0,0,0,0,0,0,0,0,0,0,0,0,0,0,0,0,0,0
621,-1.714491,-0.47902802,-1.2365757,-0.91763824,0.8575246,1.9053231,10.626365,3.3472435,2.2119431,1,0,0,0,0,0,0,0,0,0,0,0,0,0,0,0,0,0,0,0,0
622,-1.7280979,-0.4752412,-1.233647,0.06560085,1.2601945,1.0168927,9.818322,3.3005567,5.119701,1,0,0,0,0,0,0,0,0,0,0,0,0,0,0,0,0,0,0,0,0
623,-1.7386463,-0.47334293,-1.2314,0.392637,0.8862867,0.24670646,9.262867,4.5227966,4.4912233,1,0,0,0,0,0,0,0,0,0,0,0,0,0,0,0,0,0,0,0,0
624,-1.7457242,-0.47390008,-1.2284788,0.52686036,0.9342236,-0.029197033,8.59249,5.32246,4.5331216,1,0,0,0,0,0,0,0,0,0,0,0,0,0,0,0,0,0,0,0,0
625,-1.822563,-0.5050389,-1.1353465,0.29356745,0.5475326,-0.09098237,7.8921866,5.481674,4.522348,1,0,0,0,0,0,0,0,0,0,0,0,0,0,0,0,0,0,0,0,0
626,-1.8277262,-0.50499094,-1.1344147,0.03683711,-0.003209908,-0.011087272,8.217798,5.0986023,4.299687,1,0,0,0,0,0,0,0,0,0,0,0,0,0,0,0,0,0,0,0,0
627,-1.8319553,-0.5052406,-1.1343664,0.028314995,-0.11825847,-0.08991684,8.080132,5.0806456,3.7921162,1,0,0,0,0,0,0,0,0,0,0,0,0,0,0,0,0,0,0,0,0
628,-1.835278,-0.50587296,-1.1337048,0.10075298,-0.04688575,-0.19324748,7.715016,5.1488805,3.9142206,1,0,0,0,0,0,0,0,0,0,0,0,0,0,0,0,0,0,0,0,0
629,-1.8320392,-0.54066855,-1.1537508,0.06879504,-0.24715546,-0.2560981,7.324761,5.5032225,3.6795888,1,0,0,0,0,0,0,0,0,0,0,0,0,0,0,0,0,0,0,0,0
630,-1.8312292,-0.5430703,-1.1545233,0.17851728,-0.023449931,-0.23053174,7.114071,5.9509377,2.82845,1,0,0,0,0,0,0,0,0,0,0,0,0,0,0,0,0,0,0,0,0
631,-1.8321567,-0.544633,-1.1549237,0.1806478,0.05218384,-0.24331492,7.2984247,5.6624365,3.053505,1,0,0,0,0,0,0,0,0,0,0,0,0,0,0,0,0,0,0,0,0
632,-1.8345765,-0.5452664,-1.1564262,0.08264348,-0.15128167,-0.3338624,7.8993692,5.4469585,2.8009167,1,0,0,0,0,0,0,0,0,0,0,0,0,0,0,0,0,0,0,0,0
633,-1.7934215,-0.62518036,-1.1553637,-0.013230318,-0.16726063,-0.66942066,8.186673,5.287744,2.8440123,1,0,0,0,0,0,0,0,0,0,0,0,0,0,0,0,0,0,0,0,0
634,-1.7985291,-0.6233094,-1.1559107,0.03896764,-0.19282697,-1.097657,8.107665,5.1512747,3.314473,1,0,0,0,0,0,0,0,0,0,0,0,0,0,0,0,0,0,0,0,0
635,-1.804094,-0.62129843,-1.1566163,0.09542666,-0.25674284,-1.43215,8.229769,5.105785,3.2833483,1,0,0,0,0,0,0,0,0,0,0,0,0,0,0,0,0,0,0,0,0
636,-1.8089174,-0.6199882,-1.158757,0.22964998,-0.082039475,-2.1022015,8.313566,5.417031,2.636914,1,0,0,0,0,0,0,0,0,0,0,0,0,0,0,0,0,0,0,0,0
637,-1.8137944,-0.6194704,-1.1598442,-0.12827888,-0.37392193,-2.7594695,7.50672,5.4134398,2.805705,1,0,0,0,0,0,0,0,0,0,0,0,0,0,0,0,0,0,0,0,0
638,-1.509729,-0.9476306,-1.0078515,-0.4840772,-0.6892402,-3.2399037,6.380248,5.5056167,3.090615,1,0,0,0,0,0,0,0,0,0,0,0,0,0,0,0,0,0,0,0,0
639,-1.5118814,-0.94669604,-1.0065925,-0.36689812,-0.07564789,-3.4572177,4.2458177,6.614132,3.0690672,1,0,0,0,0,0,0,0,0,0,0,0,0,0,0,0,0,0,0,0,0
640,-1.5091592,-0.94750684,-0.9999346,-0.25717586,-0.00853623,-3.695837,2.3136966,7.15163,3.719093,1,0,0,0,0,0,0,0,0,0,0,0,0,0,0,0,0,0,0,0,0
641,-1.497956,-0.9485831,-0.9852748,-0.41270447,-0.37818298,-3.3762577,1.2841899,7.604134,4.695927,1,0,0,0,0,0,0,0,0,0,0,0,0,0,0,0,0,0,0,0,0
642,-0.82879776,-1.2132344,-0.4410257,-0.06968933,-0.37072614,-2.9245856,-1.0034698,10.234165,3.7358525,1,0,0,0,0,0,0,0,0,0,0,0,0,0,0,0,0,0,0,0,0
643,-0.80902123,-1.2143619,-0.4262426,0.35640445,-0.08311033,-1.7698362,-1.1315596,10.830321,2.8080993,1,0,0,0,0,0,0,0,0,0,0,0,0,0,0,0,0,0,0,0,0
644,-0.7853713,-1.2159845,-0.40720716,0.05493462,-0.27379265,-0.9858016,-1.6187797,11.422886,2.7913399,1,0,0,0,0,0,0,0,0,0,0,0,0,0,0,0,0,0,0,0,0
645,-0.772207,-1.2180424,-0.39507523,-0.3040595,-0.722269,-0.20815852,-0.3426701,10.09171,2.636914,1,0,0,0,0,0,0,0,0,0,0,0,0,0,0,0,0,0,0,0,0
646,-0.76887465,-1.2194542,-0.39070922,-0.45213124,-0.9022987,-0.10056682,0.47255555,9.269301,2.6452937,1,0,0,0,0,0,0,0,0,0,0,0,0,0,0,0,0,0,0,0,0
647,-0.66898155,-1.1768603,-0.39811045,-0.28381947,-0.4879108,-0.19644062,0.8065467,8.92693,2.567482,0,0,0,0,0,0,0,0,0,0,0,0,0,0,0,0,0,0,0,0,0
648,-0.66751724,-1.1773001,-0.39235678,0.17637476,0.19918475,-0.29764074,0.38037878,8.847922,3.4305918,0,0,0,0,0,0,0,0,0,0,0,0,0,0,0,0,0,0,0,0,0
649,-0.6651259,-1.1787887,-0.386522,0.30314124,0.12674676,-0.30509758,0.29897594,9.009531,2.9613283,0,0,0,0,0,0,0,0,0,0,0,0,0,0,0,0,0,0,0,0,0
650,-0.6598963,-1.1824105,-0.3799904,0.12524207,-0.04156502,-0.22094171,0.12419921,9.683498,2.069488,0,0,0,0,0,0,0,0,0,0,0,0,0,0,0,0,0,0,0,0,0
651,-0.6475972,-1.1844913,-0.3569598,-0.01963389,0.07241827,-0.022802517,0.33848026,9.592519,2.1006126,0,0,0,0,0,0,0,0,0,0,0,0,0,0,0,0,0,0,0,0,0
652,-0.65016615,-1.1865877,-0.35562405,-0.2880805,-0.04902187,0.08798498,0.9226655,9.07178,2.566285,0,0,0,0,0,0,0,0,0,0,0,0,0,0,0,0,0,0,0,0,0
653,-0.65615684,-1.1876364,-0.35600957,-0.3519964,-0.006411294,0.014481737,1.1285669,8.946084,2.8679543,0,0,0,0,0,0,0,0,0,0,0,0,0,0,0,0,0,0,0,0,0
654,-0.6594693,-1.1881258,-0.35396636,-0.29553738,0.1491173,-0.04517307,0.85682493,9.100511,3.302502,0,0,0,0,0,0,0,0,0,0,0,0,0,0,0,0,0,0,0,0,0
655,-0.66066056,-1.1878595,-0.34997702,-0.12616034,0.17681418,-0.003627758,0.58268887,9.250148,3.80289,0,0,0,0,0,0,0,0,0,0,0,0,0,0,0,0,0,0,0,0,0
656,-0.6640155,-1.1751925,-0.32547805,-0.035612855,0.14485626,0.059222843,0.7802105,9.050232,3.8735192,0,0,0,0,0,0,0,0,0,0,0,0,0,0,0,0,0,0,0,0,0
657,-0.66777086,-1.1756246,-0.32409766,-0.09952872,-0.059674516,0.0048943576,0.9190742,9.232191,3.504812,0,0,0,0,0,0,0,0,0,0,0,0,0,0,0,0,0,0,0,0,0
658,-0.6715815,-1.175966,-0.32289353,-0.060113937,0.017024523,-0.013215138,0.9501988,9.17114,3.516783,0,0,0,0,0,0,0,0,0,0,0,0,0,0,0,0,0,0,0,0,0
659,-0.67246103,-1.1768038,-0.3202098,-0.065446116,0.0042384206,-0.037714623,0.643741,9.315989,3.3707366,0,0,0,0,0,0,0,0,0,0,0,0,0,0,0,0,0,0,0,0,0
660,-0.67669994,-1.1697998,-0.32147682,-0.053728208,-0.026654247,0.04218021,0.5276222,9.240571,3.5203743,0,0,0,0,0,0,0,0,0,0,0,0,0,0,0,0,0,0,0,0,0
661,-0.67810535,-1.1706252,-0.3191131,-0.112317756,-0.15235545,0.08798658,0.691625,9.10889,3.3551743,0,0,0,0,0,0,0,0,0,0,0,0,0,0,0,0,0,0,0,0,0
662,-0.68141425,-1.1713121,-0.31809512,-0.17303783,-0.22479343,0.081594996,0.9083003,8.947282,3.304896,0,0,0,0,0,0,0,0,0,0,0,0,0,0,0,0,0,0,0,0,0
663,-0.6851541,-1.1719759,-0.3175906,-0.093142994,-0.08630905,0.041114945,0.9897031,8.936507,3.2821512,0,0,0,0,0,0,0,0,0,0,0,0,0,0,0,0,0,0,0,0,0
664,-0.68783534,-1.1727564,-0.31676483,-0.0420103,0.10011222,-0.027061978,0.9262568,9.02629,3.266589,0,0,0,0,0,0,0,0,0,0,0,0,0,0,0,0,0,0,0,0,0
665,-0.66974896,-1.1676867,-0.28100997,-0.08355562,0.12354804,-0.054758854,0.75507134,9.056217,3.5814264,0,0,0,0,0,0,0,0,0,0,0,0,0,0,0,0,0,0,0,0,0
666,-0.67100745,-1.1677955,-0.27900425,-0.08568614,0.08200272,-0.06115044,0.6449381,9.056217,3.813664,0,0,0,0,0,0,0,0,0,0,0,0,0,0,0,0,0,0,0,0,0
667,-0.670364,-1.1678313,-0.27573392,-0.065446116,0.031935297,-0.044106208,0.45100775,9.226206,3.8878844,0,0,0,0,0,0,0,0,0,0,0,0,0,0,0,0,0,0,0,0,0
668,-0.67033285,-1.1681942,-0.2731805,-0.07077244,-0.056481652,0.025135979,0.5527613,9.251345,3.705925,0,0,0,0,0,0,0,0,0,0,0,0,0,0,0,0,0,0,0,0,0
669,-0.6780823,-1.1486326,-0.29359657,-0.1527978,-0.12785436,0.07094235,0.6820482,9.210644,3.632902,0,0,0,0,0,0,0,0,0,0,0,0,0,0,0,0,0,0,0,0,0
670,-0.67975646,-1.1493468,-0.29193813,-0.27423796,-0.28444824,0.075203404,0.7802105,9.168745,3.6484642,0,0,0,0,0,0,0,0,0,0,0,0,0,0,0,0,0,0,0,0,0
671,-0.68229836,-1.1493975,-0.29034173,-0.22097473,-0.2588819,0.106096074,0.84605104,9.025093,3.9285858,0,0,0,0,0,0,0,0,0,0,0,0,0,0,0,0,0,0,0,0,0
672,-0.68590516,-1.1495742,-0.2898503,-0.13042724,-0.2077492,0.10716134,1.0280104,8.942493,3.7765539,0,0,0,0,0,0,0,0,0,0,0,0,0,0,0,0,0,0,0,0,0
673,-0.68632704,-1.1501143,-0.2875884,-0.030292392,0.007434214,0.13911927,0.6820482,9.3243685,3.8184524,1,0,0,0,0,0,0,0,0,0,0,0,0,0,0,0,0,0,0,0,0
674,-0.73808295,-1.1424623,-0.32548255,0.05173297,0.18213758,0.39052168,0.26785132,9.726594,4.217087,1,0,0,0,0,0,0,0,0,0,0,0,0,0,0,0,0,0,0,0,0
675,-0.74023414,-1.142121,-0.32382274,-0.06331559,-0.20242287,0.5385934,1.0292075,8.978406,4.1608233,1,0,0,0,0,0,0,0,0,0,0,0,0,0,0,0,0,0,0,0,0
676,-0.738329,-1.1421919,-0.32011747,-0.121897675,-0.3121414,0.58759373,0.58508307,9.356689,4.195539,1,0,0,0,0,0,0,0,0,0,0,0,0,0,0,0,0,0,0,0,0
677,-0.7303709,-1.1410973,-0.3127598,0.5950253,0.36430153,1.0009164,-0.24331075,9.708637,5.0897737,1,0,0,0,0,0,0,0,0,0,0,0,0,0,0,0,0,0,0,0,0
678,-1.3414229,-1.1626928,-0.79406166,1.258685,0.6732282,1.6677718,-1.0585364,10.201843,5.1017447,1,0,0,0,0,0,0,0,0,0,0,0,0,0,0,0,0,0,0,0,0
679,-1.3134876,-1.1611621,-0.77476877,1.6911824,0.74673146,2.6052046,-0.8286931,9.271696,4.810849,1,0,0,0,0,0,0,0,0,0,0,0,0,0,0,0,0,0,0,0,0
680,-1.2984846,-1.1618284,-0.7649527,1.633658,0.10011595,3.2944307,0.85203654,7.696311,2.9194298,1,0,0,0,0,0,0,0,0,0,0,0,0,0,0,0,0,0,0,0,0
681,-1.3098395,-1.1659364,-0.78429955,0.7292486,-0.9374516,3.7173407,1.6624738,8.159589,-0.27084407,1,0,0,0,0,0,0,0,0,0,0,0,0,0,0,0,0,0,0,0,0
682,-1.3192805,-1.1671345,-0.8035409,0.086894155,-0.64130807,4.32028,2.5052328,7.0810013,-0.4444237,1,0,0,0,0,0,0,0,0,0,0,0,0,0,0,0,0,0,0,0,0
683,-1.8047458,-0.6368349,-1.2734982,-0.4478686,-0.2705961,4.4300027,5.8810573,4.538359,-1.5110406,1,0,0,0,0,0,0,0,0,0,0,0,0,0,0,0,0,0,0,0,0
684,-1.8143502,-0.6289253,-1.2813371,-1.295819,-0.2759224,3.5128098,10.608409,2.6229975,-1.0070611,1,0,0,0,0,0,0,0,0,0,0,0,0,0,0,0,0,0,0,0,0
685,-1.822933,-0.6213383,-1.2836779,-1.5259162,-0.10121903,1.9468712,11.003451,2.8468554,1.9162592,1,0,0,0,0,0,0,0,0,0,0,0,0,0,0,0,0,0,0,0,0
686,-1.8304852,-0.61617726,-1.2816244,-0.3211021,1.1632499,0.8645625,9.699809,3.9864955,3.9848495,1,0,0,0,0,0,0,0,0,0,0,0,0,0,0,0,0,0,0,0,0
687,-1.9416257,-0.6065432,-1.0923995,0.6632022,1.8578023,0.1870543,8.842685,4.658069,5.010765,1,0,0,0,0,0,0,0,0,0,0,0,0,0,0,0,0,0,0,0,0
688,-1.9400767,-0.6055981,-1.0904765,0.5609368,1.1376835,-0.1751356,7.750929,5.7797527,5.0179477,1,0,0,0,0,0,0,0,0,0,0,0,0,0,0,0,0,0,0,0,0
689,-1.9365917,-0.6053686,-1.0882444,0.15613633,0.38560683,-0.05263019,7.4971433,6.1029696,5.0406923,1,0,0,0,0,0,0,0,0,0,0,0,0,0,0,0,0,0,0,0,0
690,-1.9375873,-0.6033341,-1.087367,-0.0089796465,0.010633736,0.10715947,8.313566,5.298518,4.8311996,1,0,0,0,0,0,0,0,0,0,0,0,0,0,0,0,0,0,0,0,0
691,-1.9393544,-0.6004962,-1.0873764,-0.053720754,-0.20454969,-0.0068238177,8.439261,4.7382746,4.4253826,1,0,0,0,0,0,0,0,0,0,0,0,0,0,0,0,0,0,0,0,0
692,-1.9309727,-0.5994138,-1.1112442,0.07517625,-0.18217912,-0.097371295,8.0933,4.719121,3.966893,1,0,0,0,0,0,0,0,0,0,0,0,0,0,0,0,0,0,0,0,0
693,-1.9312437,-0.59741724,-1.1128737,0.12843947,-0.10548009,-0.1900493,8.058583,4.7322893,3.2007484,1,0,0,0,0,0,0,0,0,0,0,0,0,0,0,0,0,0,0,0,0
694,-1.9309287,-0.5959399,-1.1148973,0.053870954,-0.052216865,-0.33386,7.9747868,4.9130516,2.9721022,1,0,0,0,0,0,0,0,0,0,0,0,0,0,0,0,0,0,0,0,0
695,-1.9290282,-0.59543216,-1.1155678,-0.0015227955,0.017025322,-0.47340962,7.457639,5.2470427,3.351583,1,0,0,0,0,0,0,0,0,0,0,0,0,0,0,0,0,0,0,0,0
696,-1.8913924,-0.65447134,-1.0931093,0.009129848,-0.028781047,-0.53839076,7.8179665,5.311686,3.635296,1,0,0,0,0,0,0,0,0,0,0,0,0,0,0,0,0,0,0,0,0
697,-1.8909569,-0.6524731,-1.0953689,-0.106983975,-0.21626759,-0.85370904,8.396166,5.5666685,3.2055368,1,0,0,0,0,0,0,0,0,0,0,0,0,0,0,0,0,0,0,0,0
698,-1.8882333,-0.65175587,-1.0957888,-0.0089796465,0.067092754,-1.1668968,7.6862855,6.0634656,3.755006,1,0,0,0,0,0,0,0,0,0,0,0,0,0,0,0,0,0,0,0,0
699,-1.8860245,-0.6514385,-1.0978509,0.05813201,0.13100861,-1.4385393,7.693468,6.095787,3.0008326,1,0,0,0,0,0,0,0,0,0,0,0,0,0,0,0,0,0,0,0,0
700,-1.8850995,-0.6508512,-1.0992299,-0.27636102,-0.027715784,-1.8316218,7.218219,5.6289177,3.0858266,1,0,0,0,0,0,0,0,0,0,0,0,0,0,0,0,0,0,0,0,0
701,-1.6475918,-0.84286124,-0.94835556,-0.5000665,-0.1438296,-2.1203084,5.6631846,6.3842883,4.360739,1,0,0,0,0,0,0,0,0,0,0,0,0,0,0,0,0,0,0,0,0
702,-1.6503695,-0.83969486,-0.9457821,0.32657865,0.52515644,-2.118178,5.288492,5.905448,4.9377418,0,0,0,0,0,0,0,0,0,0,0,0,0,0,0,0,0,0,0,0,0
703,-1.6536667,-0.83832896,-0.9474423,0.9412362,0.6955988,-2.3610582,5.3830633,6.1101522,3.2414498,0,0,0,0,0,0,0,0,0,0,0,0,0,0,0,0,0,0,0,0,0
704,-1.65843,-0.838161,-0.9526445,0.5140652,0.1853371,-2.8297746,5.0634375,5.9222074,1.9246389,0,0,0,0,0,0,0,0,0,0,0,0,0,0,0,0,0,0,0,0,0
705,-1.0977874,-1.1140133,-0.523591,-0.2230978,-0.44742996,-3.03324,2.6309283,7.532308,3.0092123,0,0,0,0,0,0,0,0,0,0,0,0,0,0,0,0,0,0,0,0,0
706,-1.1006161,-1.1196715,-0.5334465,-0.27316523,-0.46021315,-2.8564062,1.3643957,9.136423,0.84485394,0,0,0,0,0,0,0,0,0,0,0,0,0,0,0,0,0,0,0,0,0
707,-1.0689816,-1.124473,-0.51286525,-0.8633217,0.0745496,-1.9892809,-1.1291654,11.08291,2.0886416,0,0,0,0,0,0,0,0,0,0,0,0,0,0,0,0,0,0,0,0,0
708,-1.0627754,-1.1219949,-0.5043507,-0.75146896,0.0745496,-0.9378649,0.47016135,8.424149,5.381866,0,0,0,0,0,0,0,0,0,0,0,0,0,0,0,0,0,0,0,0,0
709,-1.0550354,-1.121977,-0.49743763,-0.6492097,-0.7030964,-0.7940529,0.6904279,9.051429,4.314052,0,0,0,0,0,0,0,0,0,0,0,0,0,0,0,0,0,0,0,0,0
710,-0.76809305,-1.0904677,-0.3346214,-0.17197123,-0.15341991,-0.5192147,0.48931497,9.676316,3.4473512,0,0,0,0,0,0,0,0,0,0,0,0,0,0,0,0,0,0,0,0,0
711,-0.7680092,-1.0922693,-0.33340403,0.0698438,0.4718903,-0.36049026,1.0292075,9.254936,3.6652236,0,0,0,0,0,0,0,0,0,0,0,0,0,0,0,0,0,0,0,0,0
712,-0.76604277,-1.0932713,-0.3303935,-0.18262388,0.19918261,-0.4286672,0.75866264,9.134029,4.102165,0,0,0,0,0,0,0,0,0,0,0,0,0,0,0,0,0,0,0,0,0
713,-0.75851333,-1.0943261,-0.32433185,-0.23695236,0.062828764,-0.359425,0.11581951,9.377041,4.239832,0,0,0,0,0,0,0,0,0,0,0,0,0,0,0,0,0,0,0,0,0
714,-0.66591513,-1.078754,-0.23000163,-0.19966811,0.07880773,-0.14530686,0.12060791,9.2130375,4.4110174,0,0,0,0,0,0,0,0,0,0,0,0,0,0,0,0,0,0,0,0,0
715,-0.6665744,-1.0790209,-0.22874081,-0.16025332,0.028740302,-0.043041475,0.75387424,8.74138,4.4732666,0,0,0,0,0,0,0,0,0,0,0,0,0,0,0,0,0,0,0,0,0
716,-0.66770405,-1.0797267,-0.22802563,-0.055857405,0.06708982,-0.09843522,0.83647424,8.881441,4.2805333,0,0,0,0,0,0,0,0,0,0,0,0,0,0,0,0,0,0,0,0,0
717,-0.66842085,-1.0809813,-0.22739351,-0.0036594495,0.093721434,-0.081391,0.798167,8.956859,4.0111856,0,0,0,0,0,0,0,0,0,0,0,0,0,0,0,0,0,0,0,0,0
718,-0.66123194,-1.0778072,-0.20683636,-0.033486854,0.094786696,-0.018540395,0.58987147,8.911368,4.373907,0,0,0,0,0,0,0,0,0,0,0,0,0,0,0,0,0,0,0,0,0
719,-0.66064286,-1.0782678,-0.20485811,-0.062248994,-0.08311246,0.032592297,0.48452657,8.856301,4.4720693,0,0,0,0,0,0,0,0,0,0,0,0,0,0,0,0,0,0,0,0,0
720,-0.66074455,-1.0793142,-0.20375492,-0.06864058,-0.31107906,0.18172932,0.61979896,8.8227825,4.109348,0,0,0,0,0,0,0,0,0,0,0,0,0,0,0,0,0,0,0,0,0
721,-0.6695201,-1.0805151,-0.20926863,-0.17516702,-0.4676729,0.176403,1.747468,8.229021,3.3611598,0,0,0,0,0,0,0,0,0,0,0,0,0,0,0,0,0,0,0,0,0
722,-0.6781031,-1.0814259,-0.21446441,-0.29447663,-0.18537785,-0.06647729,1.8228853,8.461259,3.5969887,0,0,0,0,0,0,0,0,0,0,0,0,0,0,0,0,0,0,0,0,0
723,-0.6394555,-1.0582507,-0.16251923,-0.045204762,0.34086278,-0.17513427,1.3536218,8.563012,4.53791,0,0,0,0,0,0,0,0,0,0,0,0,0,0,0,0,0,0,0,0,0
724,-0.64388263,-1.058219,-0.16359286,-0.010051036,0.28546903,-0.23159328,1.0579379,8.731803,4.8168344,0,0,0,0,0,0,0,0,0,0,0,0,0,0,0,0,0,0,0,0,0
725,-0.64449644,-1.058114,-0.16237706,-0.1250996,0.0095655415,-0.174069,0.537199,9.1890955,5.2070894,0,0,0,0,0,0,0,0,0,0,0,0,0,0,0,0,0,0,0,0,0
726,-0.6439475,-1.0582848,-0.16083112,-0.08568321,-0.17152861,-0.02067119,0.43664253,9.313594,5.119701,0,0,0,0,0,0,0,0,0,0,0,0,0,0,0,0,0,0,0,0,0
727,-0.6780866,-1.0609541,-0.20325178,0.04001799,-0.10654748,0.117813185,0.6760627,9.068189,4.8730984,0,0,0,0,0,0,0,0,0,0,0,0,0,0,0,0,0,0,0,0,0
728,-0.68059766,-1.06151,-0.20359173,0.12736967,-0.025587386,0.10076895,0.9920973,8.679131,4.431368,0,0,0,0,0,0,0,0,0,0,0,0,0,0,0,0,0,0,0,0,0
729,-0.68141675,-1.0626404,-0.20338409,0.09221595,-0.038370557,0.038983617,0.8185177,8.762928,4.183568,0,0,0,0,0,0,0,0,0,0,0,0,0,0,0,0,0,0,0,0,0
730,-0.68109494,-1.0635972,-0.20231937,0.16891499,0.043654803,0.037918355,0.6461352,8.7114525,4.2709565,0,0,0,0,0,0,0,0,0,0,0,0,0,0,0,0,0,0,0,0,0
731,-0.6819338,-1.0651665,-0.20253235,0.17956764,0.017023193,0.076267876,0.83168584,8.608501,3.8459857,1,0,0,0,0,0,0,0,0,0,0,0,0,0,0,0,0,0,0,0,0
732,-0.7051027,-1.0797015,-0.22627635,0.033626404,-0.031978972,0.035787825,1.0483611,8.65878,3.5706525,1,0,0,0,0,0,0,0,0,0,0,0,0,0,0,0,0,0,0,0,0
733,-0.70711356,-1.0813107,-0.2274928,-0.028158933,0.084134854,0.009156214,1.0782886,8.746168,3.6520555,1,0,0,0,0,0,0,0,0,0,0,0,0,0,0,0,0,0,0,0,0
734,-0.7075319,-1.0825304,-0.22710408,0.014451643,0.28546983,0.030461503,0.84605104,8.966435,4.0075946,1,0,0,0,0,0,0,0,0,0,0,0,0,0,0,0,0,0,0,0,0
735,-0.70706475,-1.0833757,-0.22585651,0.02084323,0.32168883,0.103964746,0.7047931,8.98918,4.239832,1,0,0,0,0,0,0,0,0,0,0,0,0,0,0,0,0,0,0,0,0
736,-0.7675444,-1.0669856,-0.2511172,-0.077161096,0.22688028,0.2786681,-0.2947861,9.804405,3.8459857,1,0,0,0,0,0,0,0,0,0,0,0,0,0,0,0,0,0,0,0,0
737,-0.7532794,-1.0693228,-0.24200709,0.09860753,0.6029186,0.8848036,-0.8346786,10.09171,4.026748,1,0,0,0,0,0,0,0,0,0,0,0,0,0,0,0,0,0,0,0,0
738,-0.73891705,-1.0701733,-0.23278347,0.2733109,0.9246285,1.5367454,-1.0465654,9.740959,4.6983213,1,0,0,0,0,0,0,0,0,0,0,0,0,0,0,0,0,0,0,0,0
739,-0.7299973,-1.067815,-0.225301,0.7803768,1.116376,2.3452811,-0.89932203,8.970026,6.320393,1,0,0,0,0,0,0,0,0,0,0,0,0,0,0,0,0,0,0,0,0
740,-0.7289931,-1.0674032,-0.22283237,1.2735941,0.8010578,2.929046,0.44981065,7.661595,4.4002433,1,0,0,0,0,0,0,0,0,0,0,0,0,0,0,0,0,0,0,0,0
741,-1.5990338,-0.99028265,-0.8917862,0.9135348,0.4239542,2.997223,3.407847,6.3950624,2.0180128,1,0,0,0,0,0,0,0,0,0,0,0,0,0,0,0,0,0,0,0,0
742,-1.5928317,-0.99316704,-0.88994527,-0.07929163,-0.36114568,2.7468858,2.5399487,7.5957546,2.4681227,1,0,0,0,0,0,0,0,0,0,0,0,0,0,0,0,0,0,0,0,0
743,-1.5862737,-0.994385,-0.8877707,-0.33176968,-0.6487721,3.0611413,2.852392,7.1288853,2.876334,1,0,0,0,0,0,0,0,0,0,0,0,0,0,0,0,0,0,0,0,0
744,-1.5921912,-0.9900425,-0.89230025,-0.60554266,-1.0162884,3.0707285,5.298069,5.807286,2.602198,1,0,0,0,0,0,0,0,0,0,0,0,0,0,0,0,0,0,0,0,0
745,-1.714651,-0.6206075,-1.1664169,-0.93790513,-1.4413289,2.5412922,7.7617025,5.084237,2.8954878,1,0,0,0,0,0,0,0,0,0,0,0,0,0,0,0,0,0,0,0,0
746,-1.7221857,-0.61837506,-1.1701332,-0.8580103,-1.2154928,1.6901459,9.430461,5.3906946,2.0946271,1,0,0,0,0,0,0,0,0,0,0,0,0,0,0,0,0,0,0,0,0
747,-1.7295218,-0.6157614,-1.1730254,-0.49475515,-0.0777904,0.93806916,9.770438,5.357176,2.5579052,1,0,0,0,0,0,0,0,0,0,0,0,0,0,0,0,0,0,0,0,0
748,-1.7355291,-0.61362654,-1.1708167,-0.11445574,0.81916225,0.36815274,8.450036,5.397877,4.7067013,1,0,0,0,0,0,0,0,0,0,0,0,0,0,0,0,0,0,0,0,0
749,-1.7401865,-0.6126149,-1.1659485,0.22216782,0.9437982,0.106097676,7.388207,5.8288336,5.5398836,1,0,0,0,0,0,0,0,0,0,0,0,0,0,0,0,0,0,0,0,0
750,-1.785877,-0.6177227,-1.0711519,0.18914463,0.5123661,0.0453776,7.254132,5.92939,5.7541647,1,0,0,0,0,0,0,0,0,0,0,0,0,0,0,0,0,0,0,0,0
751,-1.787639,-0.6172836,-1.0683385,0.081552915,-0.067137755,0.025137577,7.005135,5.9222074,5.2190604,1,0,0,0,0,0,0,0,0,0,0,0,0,0,0,0,0,0,0,0,0
752,-1.7899597,-0.61635625,-1.0676558,0.18275304,-0.140641,0.08159659,7.492355,5.5989904,4.456507,1,0,0,0,0,0,0,0,0,0,0,0,0,0,0,0,0,0,0,0,0
753,-1.7922014,-0.6154483,-1.0681899,0.1390772,-0.22373162,-0.07180148,7.616853,5.5056167,3.93098,1,0,0,0,0,0,0,0,0,0,0,0,0,0,0,0,0,0,0,0,0
754,-1.7896701,-0.64409447,-1.1032288,0.083683446,-0.28019065,-0.20815533,7.042245,5.737854,3.7597945,1,0,0,0,0,0,0,0,0,0,0,0,0,0,0,0,0,0,0,0,0
755,-1.7894992,-0.6442099,-1.104071,0.081552915,-0.25355902,-0.2688754,7.066187,5.895871,3.2019455,1,0,0,0,0,0,0,0,0,0,0,0,0,0,0,0,0,0,0,0,0
756,-1.7890269,-0.6445945,-1.105206,-0.034560908,-0.16620734,-0.36581448,7.086538,6.0395236,3.0798411,1,0,0,0,0,0,0,0,0,0,0,0,0,0,0,0,0,0,0,0,0
757,-1.7887949,-0.64463866,-1.1055021,-0.2295043,-0.2844517,-0.49258092,7.2756796,6.104167,3.5215714,1,0,0,0,0,0,0,0,0,0,0,0,0,0,0,0,0,0,0,0,0
758,-1.7890738,-0.64438325,-1.1053041,-0.27318013,-0.2610159,-0.734396,7.5330563,6.201132,3.8759134,1,0,0,0,0,0,0,0,0,0,0,0,0,0,0,0,0,0,0,0,0
759,-1.6901938,-0.7286317,-1.0690023,-0.09208386,-0.06713696,-1.0848682,7.565378,6.0981812,4.0913916,0,0,0,0,0,0,0,0,0,0,0,0,0,0,0,0,0,0,0,0,0
760,-1.6933788,-0.7263345,-1.069096,0.118838504,0.1288717,-1.4619719,7.4241204,5.9509377,4.027945,0,0,0,0,0,0,0,0,0,0,0,0,0,0,0,0,0,0,0,0,0
761,-1.6928437,-0.72635776,-1.0688978,0.36278406,0.40157938,-1.869968,6.2976484,6.4309754,3.5359366,0,0,0,0,0,0,0,0,0,0,0,0,0,0,0,0,0,0,0,0,0
762,-1.6889112,-0.7306132,-1.0699391,0.7888898,1.0141064,-1.8955344,4.999991,7.588572,2.4142532,0,0,0,0,0,0,0,0,0,0,0,0,0,0,0,0,0,0,0,0,0
763,-1.6443995,-0.9820153,-0.84755224,0.8645236,1.495606,-1.5706288,3.5862148,7.9848123,1.463755,0,0,0,0,0,0,0,0,0,0,0,0,0,0,0,0,0,0,0,0,0
764,-1.6436216,-0.9835547,-0.8548514,-0.21671979,0.6828092,-1.4939297,3.8579566,7.3335896,1.4446014,0,0,0,0,0,0,0,0,0,0,0,0,0,0,0,0,0,0,0,0,0
765,-1.64134,-0.9803722,-0.84855866,-1.2681358,-0.19283816,-1.3756855,3.3180642,6.9756565,5.532701,0,0,0,0,0,0,0,0,0,0,0,0,0,0,0,0,0,0,0,0,0
766,-1.6450052,-0.9758664,-0.84613746,-0.69289297,-0.46767637,-1.8039217,4.3774986,6.1951466,4.916194,0,0,0,0,0,0,0,0,0,0,0,0,0,0,0,0,0,0,0,0,0
767,-1.6405879,-0.974859,-0.84183824,-0.13362917,0.0021052288,-2.0851514,3.2354643,7.2833114,4.4265795,0,0,0,0,0,0,0,0,0,0,0,0,0,0,0,0,0,0,0,0,0
768,-1.1789424,-1.133069,-0.42118207,0.14547011,0.14911172,-2.5517373,3.9477394,5.9700913,3.9417539,0,0,0,0,0,0,0,0,0,0,0,0,0,0,0,0,0,0,0,0,0
769,-1.1679392,-1.1331779,-0.416122,-0.24761246,-0.29510355,-2.9192536,0.63895255,8.2733135,3.7633858,0,0,0,0,0,0,0,0,0,0,0,0,0,0,0,0,0,0,0,0,0
770,-1.1418681,-1.1339972,-0.40140104,0.020834176,0.23007181,-2.2151139,-1.3709798,10.407744,4.138078,0,0,0,0,0,0,0,0,0,0,0,0,0,0,0,0,0,0,0,0,0
771,-1.118722,-1.1331104,-0.38713938,0.3500009,0.41755834,-1.1818073,-1.6606781,10.373029,5.154417,0,0,0,0,0,0,0,0,0,0,0,0,0,0,0,0,0,0,0,0,0
772,-0.90742385,-1.175451,-0.24347995,-0.046277482,-0.7169483,-0.45742747,-0.9603742,10.011504,4.4648867,0,0,0,0,0,0,0,0,0,0,0,0,0,0,0,0,0,0,0,0,0
773,-0.8985432,-1.1760361,-0.2385892,-0.285962,-1.0588981,-0.074997544,-0.0038905777,9.594913,3.6783917,0,0,0,0,0,0,0,0,0,0,0,0,0,0,0,0,0,0,0,0,0
774,-0.8939517,-1.1766585,-0.237306,-0.31259358,-0.61468285,0.028333105,0.61740476,9.34831,3.503615,0,0,0,0,0,0,0,0,0,0,0,0,0,0,0,0,0,0,0,0,0
775,-0.8908517,-1.1750555,-0.23541386,0.015507854,0.1885265,-0.019603794,0.6449381,8.833557,4.488829,0,0,0,0,0,0,0,0,0,0,0,0,0,0,0,0,0,0,0,0,0
776,-0.8862578,-1.1733675,-0.2322406,0.2243074,0.34831962,-0.07499941,0.35045126,8.776096,4.5570636,0,0,0,0,0,0,0,0,0,0,0,0,0,0,0,0,0,0,0,0,0
777,-0.87123847,-1.2031207,-0.17865458,0.14867362,0.136332,-0.05049833,0.43544543,8.662372,4.02196,0,0,0,0,0,0,0,0,0,0,0,0,0,0,0,0,0,0,0,0,0
778,-0.86529195,-1.2021599,-0.17628998,-0.021768678,-0.0639377,-0.037715156,0.2391209,8.970026,3.9525278,0,0,0,0,0,0,0,0,0,0,0,0,0,0,0,0,0,0,0,0,0
779,-0.8627045,-1.2008666,-0.17587979,-0.024964472,-0.054350324,0.01874386,0.62339026,8.685117,3.9692872,0,0,0,0,0,0,0,0,0,0,0,0,0,0,0,0,0,0,0,0,0
780,-0.8604552,-1.2003771,-0.17630883,-4.6339002E-4,0.017022394,-0.024931982,0.72274965,8.857499,3.6149452,0,0,0,0,0,0,0,0,0,0,0,0,0,0,0,0,0,0,0,0,0
781,-0.8460618,-1.2037259,-0.13967696,0.012319783,0.20876999,-0.0483678,0.6569091,8.825177,3.9477394,0,0,0,0,0,0,0,0,0,0,0,0,0,0,0,0,0,0,0,0,0
782,-0.8410469,-1.2028006,-0.13840458,-0.061183464,0.08306879,6.3436496E-4,0.30256724,9.078962,3.9704843,0,0,0,0,0,0,0,0,0,0,0,0,0,0,0,0,0,0,0,0,0
783,-0.83903915,-1.2014856,-0.13887934,-0.06437925,0.005304484,0.121009246,0.6473323,8.657583,3.9573162,0,0,0,0,0,0,0,0,0,0,0,0,0,0,0,0,0,0,0,0,0
784,-0.841956,-1.199929,-0.14268096,-0.17942782,-0.12465777,0.0656155,1.2805986,8.266131,3.7514148,0,0,0,0,0,0,0,0,0,0,0,0,0,0,0,0,0,0,0,0,0
785,-0.8434878,-1.1974618,-0.14444524,-0.22842997,-0.0021523668,-0.09523943,1.0603321,8.598925,4.510377,0,0,0,0,0,0,0,0,0,0,0,0,0,0,0,0,0,0,0,0,0
786,-0.79288596,-1.1718526,-0.09103653,0.021907164,0.27588165,-0.19111323,0.5395932,8.9819975,4.9090114,0,0,0,0,0,0,0,0,0,0,0,0,0,0,0,0,0,0,0,0,0
787,-0.78847986,-1.1700368,-0.0892872,0.079431444,0.1576373,-0.16661215,0.017657237,9.278878,4.946121,0,0,0,0,0,0,0,0,0,0,0,0,0,0,0,0,0,0,0,0,0
788,-0.7830148,-1.1686212,-0.087136395,0.022972427,-0.057546116,-0.07712994,-0.086490534,9.293243,4.737826,0,0,0,0,0,0,0,0,0,0,0,0,0,0,0,0,0,0,0,0,0
789,-0.77892333,-1.167287,-0.0856105,0.036820866,-0.14276727,0.01874386,0.04997896,9.100511,4.609736,0,0,0,0,0,0,0,0,0,0,0,0,0,0,0,0,0,0,0,0,0
790,-0.7952373,-1.175361,-0.12196552,0.08901882,-0.14383253,0.048571263,0.30376434,8.80722,4.3415856,0,0,0,0,0,0,0,0,0,0,0,0,0,0,0,0,0,0,0,0,0
791,-0.79293305,-1.1745031,-0.121587746,0.13162939,-0.06819876,0.0048954226,0.41629183,8.631247,4.024354,0,0,0,0,0,0,0,0,0,0,0,0,0,0,0,0,0,0,0,0,0
792,-0.7911428,-1.174177,-0.12192524,0.08795356,-0.05115453,-0.056889914,0.52043957,8.614488,3.7346554,0,0,0,0,0,0,0,0,0,0,0,0,0,0,0,0,0,0,0,0,0
793,-0.78710407,-1.1741929,-0.12090278,0.060244698,0.05004,-0.06008278,0.26545712,8.979603,3.743035,1,0,0,0,0,0,0,0,0,0,0,0,0,0,0,0,0,0,0,0,0
794,-0.79417765,-1.1724386,-0.12683405,-0.006866961,0.022343123,0.03259523,0.27982232,9.01791,3.9405568,1,0,0,0,0,0,0,0,0,0,0,0,0,0,0,0,0,0,0,0,0
795,-0.7918618,-1.171683,-0.12636942,-0.049477536,-0.04476854,0.08372792,0.42826283,8.885032,4.1189246,1,0,0,0,0,0,0,0,0,0,0,0,0,0,0,0,0,0,0,0,0
796,-0.79103726,-1.1705164,-0.12655489,-0.010062754,0.0031683627,0.045378402,0.58388597,8.771308,4.278139,1,0,0,0,0,0,0,0,0,0,0,0,0,0,0,0,0,0,0,0,0
797,-0.7891916,-1.1695336,-0.12616754,0.02935203,-2.7430558E-5,0.020877318,0.46058455,8.925734,4.2805333,1,0,0,0,0,0,0,0,0,0,0,0,0,0,0,0,0,0,0,0,0
798,-0.7887984,-1.1687907,-0.12693362,0.030417293,-0.04050748,0.03366049,0.6772598,8.8227825,4.0806174,1,0,0,0,0,0,0,0,0,0,0,0,0,0,0,0,0,0,0,0,0
799,-0.79515016,-1.1687784,-0.14237487,-0.006866961,-0.020267455,0.0017025588,0.63895255,8.91496,3.9597104,1,0,0,0,0,0,0,0,0,0,0,0,0,0,0,0,0,0,0,0,0
800,-0.7923088,-1.1681371,-0.14129043,0.002720419,0.056431584,0.014485732,0.3672107,8.99756,4.1548376,1,0,0,0,0,0,0,0,0,0,0,0,0,0,0,0,0,0,0,0,0
801,-0.78233016,-1.1677771,-0.13583678,0.08581104,0.20769913,0.21049438,-0.57849896,9.870246,4.3774986,1,0,0,0,0,0,0,0,0,0,0,0,0,0,0,0,0,0,0,0,0
802,-0.7625445,-1.1667697,-0.12474261,0.31271237,0.33659613,0.74099606,-2.156278,10.880599,4.8431706,1,0,0,0,0,0,0,0,0,0,0,0,0,0,0,0,0,0,0,0,0
803,-1.4148533,-1.14083,-0.67711157,0.65679276,0.42501307,1.9447448,-2.7907414,11.427674,4.784513,1,0,0,0,0,0,0,0,0,0,0,0,0,0,0,0,0,0,0,0,0
804,-1.3758993,-1.1406503,-0.6514829,0.7888856,0.585868,3.339176,-2.86975,10.7572975,4.156035,1,0,0,0,0,0,0,0,0,0,0,0,0,0,0,0,0,0,0,0,0
805,-1.3448613,-1.1374917,-0.63179666,0.7324265,0.601847,4.6515813,-1.6750433,7.6891284,4.845565,1,0,0,0,0,0,0,0,0,0,0,0,0,0,0,0,0,0,0,0,0
806,-1.3290944,-1.1330289,-0.6225265,0.01017727,-1.1782099,5.182083,0.6581062,5.099799,3.8735192,1,0,0,0,0,0,0,0,0,0,0,0,0,0,0,0,0,0,0,0,0
807,-1.3377898,-1.125923,-0.6284934,-0.49262753,-2.411786,5.3035235,3.1085715,3.8452375,2.3627777,1,0,0,0,0,0,0,0,0,0,0,0,0,0,0,0,0,0,0,0,0
808,-1.860719,-0.50331503,-1.3419203,0.11670371,-1.4189596,4.661169,10.31033,1.9298762,-0.827496,1,0,0,0,0,0,0,0,0,0,0,0,0,0,0,0,0,0,0,0,0
809,-1.8693498,-0.49455062,-1.3476316,0.3127169,0.44205943,2.5040076,13.863326,0.90515786,-0.78679454,1,0,0,0,0,0,0,0,0,0,0,0,0,0,0,0,0,0,0,0,0
810,-1.8768716,-0.4900591,-1.3475008,0.44587496,1.2878793,0.7548435,10.65749,3.0288148,2.4920647,1,0,0,0,0,0,0,0,0,0,0,0,0,0,0,0,0,0,0,0,0
811,-1.8806778,-0.48995572,-1.343467,0.5641193,1.2452688,0.08159632,8.154352,4.71553,3.6903627,1,0,0,0,0,0,0,0,0,0,0,0,0,0,0,0,0,0,0,0,0
812,-1.9154322,-0.49127257,-1.2700881,0.228561,0.63913333,0.07094368,7.3834186,6.077831,4.3248262,1,0,0,0,0,0,0,0,0,0,0,0,0,0,0,0,0,0,0,0,0
813,-1.9166127,-0.49262902,-1.2666252,-0.27211326,-0.2066866,0.13379428,8.153154,5.7330656,4.181174,1,0,0,0,0,0,0,0,0,0,0,0,0,0,0,0,0,0,0,0,0
814,-1.9194859,-0.49299368,-1.2634063,-0.41379344,-0.48578587,0.023006782,8.393772,5.263802,4.2122984,1,0,0,0,0,0,0,0,0,0,0,0,0,0,0,0,0,0,0,0,0
815,-1.9209032,-0.49397996,-1.2600502,0.076228194,-0.063941166,-0.08884598,7.9867578,5.4122424,4.109348,1,0,0,0,0,0,0,0,0,0,0,0,0,0,0,0,0,0,0,0,0
816,-1.9199238,-0.49627605,-1.2579939,0.06664081,-0.09909489,-0.2507662,7.375039,5.6145525,3.2366614,1,0,0,0,0,0,0,0,0,0,0,0,0,0,0,0,0,0,0,0,0
817,-1.9133909,-0.52433485,-1.2697967,0.00592074,-0.23118769,-0.105890214,7.0003467,5.643283,3.254618,1,0,0,0,0,0,0,0,0,0,0,0,0,0,0,0,0,0,0,0,0
818,-1.9122019,-0.5262685,-1.2688107,-0.17410895,-0.36434573,-0.11654286,7.292439,5.5546975,2.6644473,1,0,0,0,0,0,0,0,0,0,0,0,0,0,0,0,0,0,0,0,0
819,-1.9112191,-0.52796096,-1.2670866,-0.09421412,-0.13637915,-0.13145655,7.3439145,5.555895,3.0032268,1,0,0,0,0,0,0,0,0,0,0,0,0,0,0,0,0,0,0,0,0
