nr,fusedX,fusedY,fusedZ,gyroX,gyroY,gyroZ,accX,accY,accZ,q,w,e,r,t,z,u,i,o,p,a,s,d,f,g,h,j,k,l,y
0,-2.9403162,-0.47200212,-0.26983342,-0.28219253,0.22451113,-0.099384114,2.6548705,5.081843,8.019079,0,0,0,0,0,0,0,0,0,0,0,0,0,0,0,0,0,0,0,0,0
1,-2.919878,-0.44452673,-0.23841399,-0.21508089,0.10626678,-0.09725358,2.4310126,5.0411415,8.20463,0,0,0,0,0,0,0,0,0,0,0,0,0,0,0,0,0,0,0,0,0
2,-2.9234445,-0.44597462,-0.23938426,-0.10003232,-0.04180497,-0.07701356,2.4202387,4.861576,8.202236,0,0,0,0,0,0,0,0,0,0,0,0,0,0,0,0,0,0,0,0,0
3,-2.9265347,-0.4475322,-0.24050218,-0.10216285,-0.01517336,-0.068491444,2.4453778,4.8543935,8.03943,0,0,0,0,0,0,0,0,0,0,0,0,0,0,0,0,0,0,0,0,0
4,-2.9290824,-0.44896638,-0.2418181,-0.14477342,0.07324359,-0.056773532,2.5818472,4.893898,8.163929,0,0,0,0,0,0,0,0,0,0,0,0,0,0,0,0,0,0,0,0,0
5,-2.9169724,-0.43776953,-0.22868654,-0.11707655,0.05939515,-0.07807882,2.5267806,4.9226284,8.245332,0,0,0,0,0,0,0,0,0,0,0,0,0,0,0,0,0,0,0,0,0
6,-2.920347,-0.43951532,-0.22994933,-0.094706,0.06152568,-0.07914409,2.4405894,4.9142485,8.124424,0,0,0,0,0,0,0,0,0,0,0,0,0,0,0,0,0,0,0,0,0
7,-2.9232347,-0.4411066,-0.23111674,-0.11388076,0.04980777,-0.083405145,2.3879168,4.79813,8.051401,0,0,0,0,0,0,0,0,0,0,0,0,0,0,0,0,0,0,0,0,0
8,-2.9267042,-0.44240084,-0.23198272,-0.103228115,0.035959333,-0.081274614,2.331653,4.765808,8.282441,0,0,0,0,0,0,0,0,0,0,0,0,0,0,0,0,0,0,0,0,0
9,-2.9300926,-0.44354102,-0.23284465,-0.07340071,0.033828802,-0.051447213,2.3615806,4.743063,8.367435,0,0,0,0,0,0,0,0,0,0,0,0,0,0,0,0,0,0,0,0,0
10,-2.9247925,-0.43960005,-0.22590142,-0.044638574,0.035959333,-0.035468247,2.3340473,4.7478514,8.208221,0,0,0,0,0,0,0,0,0,0,0,0,0,0,0,0,0,0,0,0,0
11,-2.9275327,-0.4410737,-0.22681707,-0.048900962,0.044480916,-0.030141657,2.282572,4.7945385,8.193856,0,0,0,0,0,0,0,0,0,0,0,0,0,0,0,0,0,0,0,0,0
12,-2.9299266,-0.4425409,-0.22781447,-0.04144411,0.02424089,-0.03120692,2.317288,4.7945385,8.160337,0,0,0,0,0,0,0,0,0,0,0,0,0,0,0,0,0,0,0,0,0
13,-2.9320016,-0.4438936,-0.22891863,-0.051031493,0.0103924535,-0.024815334,2.379537,4.7682023,8.181885,0,0,0,0,0,0,0,0,0,0,0,0,0,0,0,0,0,0,0,0,0
14,-2.9258578,-0.4386739,-0.22291519,-0.05955361,0.028501948,-0.0407943,2.377143,4.739472,8.242937,0,0,0,0,0,0,0,0,0,0,0,0,0,0,0,0,0,0,0,0,0
15,-2.9278617,-0.44007128,-0.22392467,-0.052096758,0.068982,-0.061034326,2.3077111,4.7646112,8.229769,0,0,0,0,0,0,0,0,0,0,0,0,0,0,0,0,0,0,0,0,0
16,-2.9305158,-0.4412926,-0.22463296,-0.05529255,0.05726409,-0.051446944,2.2047606,4.709544,8.309975,0,0,0,0,0,0,0,0,0,0,0,0,0,0,0,0,0,0,0,0,0
17,-2.9331129,-0.44246992,-0.22533104,-0.015877767,-0.0077170418,-0.030141657,2.186804,4.656872,8.235755,0,0,0,0,0,0,0,0,0,0,0,0,0,0,0,0,0,0,0,0,0
18,-2.935378,-0.44364756,-0.22613564,-0.023334617,0.0103924535,-0.0258806,2.233491,4.6640544,8.211813,0,0,0,0,0,0,0,0,0,0,0,0,0,0,0,0,0,0,0,0,0
19,-2.9326909,-0.44164,-0.22038434,-0.04144411,0.03382827,-0.02375007,2.2406735,4.7574286,8.414123,0,0,0,0,0,0,0,0,0,0,0,0,0,0,0,0,0,0,0,0,0
20,-2.9336598,-0.44288757,-0.22149734,0.005427522,-0.0034559842,-0.030141657,2.3603835,4.7765822,8.33272,0,0,0,0,0,0,0,0,0,0,0,0,0,0,0,0,0,0,0,0,0
21,-2.9346163,-0.44424325,-0.2225553,-0.013747238,0.04767671,-0.04505536,2.2957401,4.7466545,8.155549,0,0,0,0,0,0,0,0,0,0,0,0,0,0,0,0,0,0,0,0,0
22,-2.9367583,-0.44555533,-0.22308499,-0.037183054,0.05832935,-0.047185887,2.0838532,4.727501,8.193856,0,0,0,0,0,0,0,0,0,0,0,0,0,0,0,0,0,0,0,0,0
23,-2.9346933,-0.44331664,-0.22120357,-0.032921996,0.0029356026,-0.02375007,2.0347722,4.727501,8.193856,0,0,0,0,0,0,0,0,0,0,0,0,0,0,0,0,0,0,0,0,0
24,-2.936664,-0.4443324,-0.22187877,-0.057423078,-0.013043364,-0.008836368,2.1652563,4.6245503,8.307581,0,0,0,0,0,0,0,0,0,0,0,0,0,0,0,0,0,0,0,0,0
25,-2.9379315,-0.44492745,-0.22261706,-0.037183054,0.001870338,0.0018162759,2.2873604,4.586243,8.640374,0,0,0,0,0,0,0,0,0,0,0,0,0,0,0,0,0,0,0,0,0
26,-2.9389935,-0.44565082,-0.22339575,0.013949637,0.027436685,0.0028815402,2.2753894,4.5934258,8.500314,0,0,0,0,0,0,0,0,0,0,0,0,0,0,0,0,0,0,0,0,0
27,-2.9399893,-0.4468063,-0.22408502,0.011819108,0.039154593,-0.0067058397,2.162862,4.671237,8.201038,0,0,0,0,0,0,0,0,0,0,0,0,0,0,0,0,0,0,0,0,0
28,-2.9404707,-0.44851467,-0.21971256,0.01605167,0.0061178138,-0.014156032,2.1532853,4.8029184,8.281244,0,0,0,0,0,0,0,0,0,0,0,0,0,0,0,0,0,0,0,0,0
29,-2.940871,-0.44986358,-0.22065534,0.02563905,0.0029220204,-0.014156032,2.2167315,4.7682023,8.108862,0,0,0,0,0,0,0,0,0,0,0,0,0,0,0,0,0,0,0,0,0
30,-2.941508,-0.4509061,-0.22154376,-0.045733668,0.018900987,-0.03226553,2.222717,4.656872,8.187871,0,0,0,0,0,0,0,0,0,0,0,0,0,0,0,0,0,0,0,0,0
31,-2.942906,-0.45176297,-0.2221127,-0.051059987,0.026357837,-0.03759185,2.1389198,4.6532807,8.377012,0,0,0,0,0,0,0,0,0,0,0,0,0,0,0,0,0,0,0,0,0
32,-2.9404404,-0.4473888,-0.21512036,-0.040407345,0.05085892,-0.014156032,2.105401,4.659266,8.399757,0,0,0,0,0,0,0,0,0,0,0,0,0,0,0,0,0,0,0,0,0
33,-2.941465,-0.44841212,-0.21588196,-0.030819964,0.0455326,7.5766933E-4,2.1520882,4.6772227,8.317158,0,0,0,0,0,0,0,0,0,0,0,0,0,0,0,0,0,0,0,0,0
34,-2.9424531,-0.44943509,-0.2166308,-0.012710469,-0.019448532,-0.02054762,2.1556795,4.693982,8.326735,0,0,0,0,0,0,0,0,0,0,0,0,0,0,0,0,0,0,0,0,0
35,-2.9418352,-0.45043382,-0.217788,-0.025493642,0.008248342,-0.025873942,2.2729952,4.574272,8.071752,0,0,0,0,0,0,0,0,0,0,0,0,0,0,0,0,0,0,0,0,0
36,-2.9418418,-0.4513129,-0.21868248,-0.11391059,0.12755796,-0.059962403,2.2442648,4.66166,8.351873,0,0,0,0,0,0,0,0,0,0,0,0,0,0,0,0,0,0,0,0,0
37,-2.9301016,-0.43734822,-0.1971245,-0.08727898,0.059381034,-0.0631582,2.0539258,4.692785,8.624812,0,0,0,0,0,0,0,0,0,0,0,0,0,0,0,0,0,0,0,0,0
38,-2.9314291,-0.4385212,-0.19787261,-0.06703895,-0.0066653597,-0.04930976,1.9809027,4.6125793,8.290821,0,0,0,0,0,0,0,0,0,0,0,0,0,0,0,0,0,0,0,0,0
39,-2.9326549,-0.43943778,-0.19868445,-0.057451576,-0.032231707,-0.068484515,2.0611084,4.5910316,8.478766,0,0,0,0,0,0,0,0,0,0,0,0,0,0,0,0,0,0,0,0,0
40,-2.93361,-0.44055134,-0.19953862,-0.04147261,0.009313607,-0.043983437,2.0658967,4.6664486,8.391377,0,0,0,0,0,0,0,0,0,0,0,0,0,0,0,0,0,0,0,0,0
41,-2.9208858,-0.43342334,-0.20356871,-0.085148446,-0.08123387,-0.070615046,2.6225486,4.7801733,8.326735,0,0,0,0,0,0,0,0,0,0,0,0,0,0,0,0,0,0,0,0,0
42,-2.9189248,-0.43474165,-0.20529541,-0.12775902,-0.092951775,-0.22081733,2.4010851,4.5814548,8.049006,0,0,0,0,0,0,0,0,0,0,0,0,0,0,0,0,0,0,0,0,0
43,-2.9240415,-0.4359504,-0.20414072,-0.12669376,0.25112864,-0.15050988,1.285387,4.721515,8.647557,0,0,0,0,0,0,0,0,0,0,0,0,0,0,0,0,0,0,0,0,0
44,-2.9240706,-0.43682075,-0.2050412,0.023510119,0.3075882,-0.08020269,2.1592708,4.5527244,8.485949,0,0,0,0,0,0,0,0,0,0,0,0,0,0,0,0,0,0,0,0,0
45,-2.926636,-0.43745837,-0.2046324,-0.12988795,7.920241E-4,-0.2090997,1.5966333,4.4042835,8.550592,0,0,0,0,0,0,0,0,0,0,0,0,0,0,0,0,0,0,0,0,0
46,-2.8987503,-0.4273021,-0.19053163,-0.09366897,0.015705725,-0.16222805,1.4062942,4.515614,8.578125,0,0,0,0,0,0,0,0,0,0,0,0,0,0,0,0,0,0,0,0,0
47,-2.9017255,-0.4282077,-0.19044422,-9.909623E-4,0.114775315,-0.06955005,1.6205753,4.4761095,8.604462,0,0,0,0,0,0,0,0,0,0,0,0,0,0,0,0,0,0,0,0,0
48,-2.9032347,-0.4289756,-0.1907224,0.018183798,0.3278282,-0.009895241,1.7869723,4.435408,8.622418,0,0,0,0,0,0,0,0,0,0,0,0,0,0,0,0,0,0,0,0,0
49,-2.9036503,-0.42951348,-0.19127434,-0.04679733,0.21277964,-0.052505817,1.9904795,4.506037,8.9719715,0,0,0,0,0,0,0,0,0,0,0,0,0,0,0,0,0,0,0,0,0
50,-2.8900886,-0.43929774,-0.16674271,0.05759858,0.12542796,-0.1100301,1.6600796,4.50484,8.385392,0,0,0,0,0,0,0,0,0,0,0,0,0,0,0,0,0,0,0,0,0
51,-2.8902617,-0.44077414,-0.16736877,7.4302196E-5,0.0583163,-0.10683431,1.5655086,4.483292,7.801207,0,0,0,0,0,0,0,0,0,0,0,0,0,0,0,0,0,0,0,0,0
52,-2.8912995,-0.4417894,-0.16776353,-0.14160587,-0.05566699,-0.08339848,1.5619173,4.495263,8.25012,0,0,0,0,0,0,0,0,0,0,0,0,0,0,0,0,0,0,0,0,0
53,-2.8915086,-0.4422859,-0.1683942,-0.10645214,-0.19095558,-0.09511639,1.7366941,4.4186487,8.598476,0,0,0,0,0,0,0,0,0,0,0,0,0,0,0,0,0,0,0,0,0
54,-2.8918653,-0.44291985,-0.16889492,-0.10006055,-0.13236603,-0.09405113,1.6732477,4.465336,8.5422125,0,0,0,0,0,0,0,0,0,0,0,0,0,0,0,0,0,0,0,0,0
55,-2.8768482,-0.43168986,-0.17334563,-0.09153844,-0.032231174,-0.09831219,1.5619173,4.409072,8.781632,0,0,0,0,0,0,0,0,0,0,0,0,0,0,0,0,0,0,0,0,0
56,-2.8789425,-0.43223172,-0.17307554,-0.010578342,-0.00986062,-0.09085534,1.3883377,4.3085155,8.611644,0,0,0,0,0,0,0,0,0,0,0,0,0,0,0,0,0,0,0,0,0
57,-2.8814647,-0.43294215,-0.17257743,-0.009513077,0.014640462,-0.024808943,1.2770073,4.369568,8.555381,0,0,0,0,0,0,0,0,0,0,0,0,0,0,0,0,0,0,0,0,0
58,-2.8836718,-0.43342486,-0.17224161,0.024575384,-0.019448001,0.011410047,1.3739725,4.3552027,8.748114,0,0,0,0,0,0,0,0,0,0,0,0,0,0,0,0,0,0,0,0,0
59,-2.8932486,-0.4422995,-0.16650847,0.0661207,0.117971115,0.06467327,1.4326304,4.4425907,8.649952,0,0,0,0,0,0,0,0,0,0,0,0,0,0,0,0,0,0,0,0,0
60,-2.8931808,-0.44290087,-0.1667503,0.03842382,0.12223217,0.09769647,1.5667057,4.506037,8.678682,0,0,0,0,0,0,0,0,0,0,0,0,0,0,0,0,0,0,0,0,0
61,-2.8921278,-0.44364923,-0.1673442,0.099149756,0.006121276,0.08597696,1.6876129,4.50484,8.479963,0,0,0,0,0,0,0,0,0,0,0,0,0,0,0,0,0,0,0,0,0
62,-2.8898299,-0.4446971,-0.16831723,0.060800232,-2.7031085E-4,0.048692703,1.7773955,4.4880805,8.100482,0,0,0,0,0,0,0,0,0,0,0,0,0,0,0,0,0,0,0,0,0
63,-2.8875935,-0.44563678,-0.1693096,-0.03933462,0.030622358,0.012473714,1.8288708,4.529979,8.258499,0,0,0,0,0,0,0,0,0,0,0,0,0,0,0,0,0,0,0,0,0
64,-2.8865135,-0.43925795,-0.166531,-0.047856737,-0.016249277,-0.016288426,1.7797897,4.4844894,8.514679,0,0,0,0,0,0,0,0,0,0,0,0,0,0,0,0,0,0,0,0,0
65,-2.8859215,-0.43982366,-0.16709122,-0.044660944,-0.058859855,-0.059964266,1.7019781,4.444985,8.63798,0,0,0,0,0,0,0,0,0,0,0,0,0,0,0,0,0,0,0,0,0
66,-2.8865445,-0.44048062,-0.16709246,-0.067031495,0.019969713,-0.05357268,1.4829087,4.5575128,8.7888155,0,0,0,0,0,0,0,0,0,0,0,0,0,0,0,0,0,0,0,0,0
67,-2.8878675,-0.4409151,-0.16685548,-0.020159863,0.03594868,-0.025875805,1.3739725,4.4270287,8.779239,0,0,0,0,0,0,0,0,0,0,0,0,0,0,0,0,0,0,0,0,0
68,-2.8891943,-0.44567874,-0.16077173,0.041625474,0.044470794,0.008212656,1.3260884,4.4425907,8.574534,0,0,0,0,0,0,0,0,0,0,0,0,0,0,0,0,0,0,0,0,0
69,-2.8892198,-0.44617173,-0.16113713,0.05334338,-0.0034661042,0.058280084,1.5331869,4.3767505,8.471583,0,0,0,0,0,0,0,0,0,0,0,0,0,0,0,0,0,0,0,0,0
70,-2.888637,-0.4463939,-0.16185693,-0.003115632,-0.07909988,0.05721482,1.7067665,4.288165,8.545804,0,0,0,0,0,0,0,0,0,0,0,0,0,0,0,0,0,0,0,0,0
71,-2.888426,-0.44675633,-0.16234809,0.01179807,-0.015184013,0.06467167,1.6445173,4.4461823,8.719383,0,0,0,0,0,0,0,0,0,0,0,0,0,0,0,0,0,0,0,0,0
72,-2.8884263,-0.4475656,-0.16258205,0.01179807,0.006121276,0.07106326,1.5044565,4.6030025,8.556578,0,0,0,0,0,0,0,0,0,0,0,0,0,0,0,0,0,0,0,0,0
73,-2.89759,-0.4474858,-0.16637029,0.012863334,-0.008792426,0.027387416,1.5236101,4.601805,8.647557,0,0,0,0,0,0,0,0,0,0,0,0,0,0,0,0,0,0,0,0,0
74,-2.8983634,-0.44817495,-0.16617677,0.052278116,0.017839184,0.015669508,1.3703812,4.5934258,8.673894,0,0,0,0,0,0,0,0,0,0,0,0,0,0,0,0,0,0,0,0,0
75,-2.8981063,-0.44876736,-0.16642381,0.10021502,0.0029254823,0.065736935,1.5535376,4.529979,8.60925,0,0,0,0,0,0,0,0,0,0,0,0,0,0,0,0,0,0,0,0,0
76,-2.8958762,-0.44911215,-0.16763888,0.097019225,-0.015184013,0.07212852,2.0012534,4.468927,8.657134,0,0,0,0,0,0,0,0,0,0,0,0,0,0,0,0,0,0,0,0,0
77,-2.9029384,-0.46182263,-0.1737939,0.10234555,-0.0045313686,0.040170588,1.9952679,4.3982983,8.483555,0,0,0,0,0,0,0,0,0,0,0,0,0,0,0,0,0,0,0,0,0
78,-2.8996356,-0.46221492,-0.17515324,0.09380239,0.01889433,0.044436708,1.9820998,4.325275,8.038233,0,0,0,0,0,0,0,0,0,0,0,0,0,0,0,0,0,0,0,0,0
79,-2.8966587,-0.46293688,-0.1762879,-0.046812512,0.05085226,-0.0130875725,1.9557635,4.6305356,8.282441,0,0,0,0,0,0,0,0,0,0,0,0,0,0,0,0,0,0,0,0,0
80,-2.896266,-0.46327615,-0.17646988,-0.032964077,-0.03330363,-0.05356762,1.6576854,4.680814,8.839093,0,0,0,0,0,0,0,0,0,0,0,0,0,0,0,0,0,0,0,0,0
81,-2.8967552,-0.46383664,-0.17647171,0.06184446,-0.050347857,-0.041849714,1.498471,4.5646954,8.398561,0,0,0,0,0,0,0,0,0,0,0,0,0,0,0,0,0,0,0,0,0
82,-2.8929904,-0.47314262,-0.17974772,0.006450709,0.01889433,-0.056763414,1.5212159,4.601805,8.308778,0,0,0,0,0,0,0,0,0,0,0,0,0,0,0,0,0,0,0,0,0
83,-2.8944554,-0.47351447,-0.17932563,-0.03189881,-0.024781512,-0.063155,1.3823522,4.6867995,8.640374,0,0,0,0,0,0,0,0,0,0,0,0,0,0,0,0,0,0,0,0,0
84,-2.8945892,-0.4736709,-0.17949244,0.04053917,-0.063131034,-0.01734863,1.6253637,4.55033,8.558971,0,0,0,0,0,0,0,0,0,0,0,0,0,0,0,0,0,0,0,0,0
85,-2.895059,-0.47391218,-0.1795656,0.011777031,0.030612238,-0.010957044,1.5487492,4.489278,8.36145,0,0,0,0,0,0,0,0,0,0,0,0,0,0,0,0,0,0,0,0,0
86,-2.895873,-0.4735984,-0.17548625,0.008581238,-0.013063604,0.026327211,1.4446014,4.4880805,8.417714,0,0,0,0,0,0,0,0,0,0,0,0,0,0,0,0,0,0,0,0,0
87,-2.8951032,-0.47389445,-0.17613603,0.01390756,-0.06526156,0.06574199,1.759439,4.527585,8.337508,0,0,0,0,0,0,0,0,0,0,0,0,0,0,0,0,0,0,0,0,0
88,-2.8946157,-0.47421536,-0.17664647,-0.038290396,-0.0077372817,0.035914592,1.7426796,4.6401124,8.524256,0,0,0,0,0,0,0,0,0,0,0,0,0,0,0,0,0,0,0,0,0
89,-2.894271,-0.47435963,-0.17715278,0.0011243866,-0.032238364,0.041240912,1.7738042,4.619762,8.663119,0,0,0,0,0,0,0,0,0,0,0,0,0,0,0,0,0,0,0,0,0
90,-2.900264,-0.47789627,-0.18713103,0.032017056,-0.047152065,0.041240912,1.7522564,4.5431476,8.269274,0,0,0,0,0,0,0,0,0,0,0,0,0,0,0,0,0,0,0,0,0
91,-2.8991556,-0.4782256,-0.18760702,-0.045747247,-0.010933075,0.0071524517,1.7977462,4.6281414,8.396166,0,0,0,0,0,0,0,0,0,0,0,0,0,0,0,0,0,0,0,0,0
92,-2.8987763,-0.47844854,-0.18781193,-0.03615987,-0.015194133,-0.012022308,1.7187376,4.656872,8.573337,0,0,0,0,0,0,0,0,0,0,0,0,0,0,0,0,0,0,0,0,0
93,-2.8981905,-0.47872713,-0.18799208,-0.009528258,-0.047152065,-0.0035001927,1.6744448,4.5934258,8.397364,0,0,0,0,0,0,0,0,0,0,0,0,0,0,0,0,0,0,0,0,0
94,-2.897296,-0.4787583,-0.18839765,-0.02337057,-0.023713319,-0.02267655,1.8168998,4.577863,8.597279,0,0,0,0,0,0,0,0,0,0,0,0,0,0,0,0,0,0,0,0,0
95,-2.8925889,-0.47892642,-0.18781811,0.011783157,-0.015191203,-0.018415492,1.6612767,4.5790606,8.548198,0,0,0,0,0,0,0,0,0,0,0,0,0,0,0,0,0,0,0,0,0
96,-2.8923123,-0.47889572,-0.18811841,0.017109478,-0.039692286,0.005020325,1.7570448,4.512023,8.543409,0,0,0,0,0,0,0,0,0,0,0,0,0,0,0,0,0,0,0,0,0
97,-2.891328,-0.47901428,-0.1886697,0.026696859,-0.018386997,-0.0024365261,1.8492216,4.551527,8.440459,0,0,0,0,0,0,0,0,0,0,0,0,0,0,0,0,0,0,0,0,0
98,-2.8910403,-0.47923237,-0.1888769,-0.0010000169,0.027419373,-0.020546021,1.7043723,4.597017,8.450036,0,0,0,0,0,0,0,0,0,0,0,0,0,0,0,0,0,0,0,0,0
99,-2.8901577,-0.4807829,-0.18869673,0.008587363,-2.7750139E-4,-0.006697584,1.6660651,4.6185646,8.433276,0,0,0,0,0,0,0,0,0,0,0,0,0,0,0,0,0,0,0,0,0
100,-2.8892643,-0.48103112,-0.1891457,0.009652628,-0.032235432,0.005020325,1.7821839,4.5706806,8.314763,0,0,0,0,0,0,0,0,0,0,0,0,0,0,0,0,0,0,0,0,0
101,-2.8879192,-0.4811556,-0.18984307,-0.019109512,-0.024778584,-0.012023906,1.9006969,4.533571,8.342297,0,0,0,0,0,0,0,0,0,0,0,0,0,0,0,0,0,0,0,0,0
102,-2.8869886,-0.4812985,-0.19024932,-0.046806388,-0.004538559,-0.020546021,1.8001404,4.583849,8.439261,0,0,0,0,0,0,0,0,0,0,0,0,0,0,0,0,0,0,0,0,0
103,-2.8867588,-0.48145077,-0.19035724,-0.051067445,0.0029182918,-0.014154435,1.6684593,4.565892,8.418911,0,0,0,0,0,0,0,0,0,0,0,0,0,0,0,0,0,0,0,0,0
104,-2.8837497,-0.47316647,-0.18750556,-0.06598115,0.015701465,-0.0035017906,1.7115549,4.574272,8.713398,0,0,0,0,0,0,0,0,0,0,0,0,0,0,0,0,0,0,0,0,0
105,-2.884583,-0.47306806,-0.1873854,-0.0020652814,0.024223581,-0.006697584,1.5966333,4.4737153,8.70023,0,0,0,0,0,0,0,0,0,0,0,0,0,0,0,0,0,0,0,0,0
106,-2.885543,-0.47296876,-0.18720712,0.035218973,0.012505672,0.016738234,1.5439608,4.397101,8.558971,0,0,0,0,0,0,0,0,0,0,0,0,0,0,0,0,0,0,0,0,0
107,-2.8858566,-0.47332343,-0.18715379,0.028827388,-0.013060674,0.05934881,1.5750854,4.586243,8.438065,0,0,0,0,0,0,0,0,0,0,0,0,0,0,0,0,0,0,0,0,0
108,-2.8938732,-0.47612223,-0.19455339,0.027762122,-0.016256468,0.06360987,1.8516158,4.7490487,8.220192,0,0,0,0,0,0,0,0,0,0,0,0,0,0,0,0,0,0,0,0,0
109,-2.8911996,-0.47655335,-0.19547887,-0.024435835,-0.031170169,0.05189196,2.0144215,4.5886374,8.202236,0,0,0,0,0,0,0,0,0,0,0,0,0,0,0,0,0,0,0,0,0
110,-2.888712,-0.47639886,-0.19663902,-0.046806388,-0.034365963,0.041239314,2.1676505,4.3779473,8.367435,0,0,0,0,0,0,0,0,0,0,0,0,0,0,0,0,0,0,0,0,0
111,-2.8879797,-0.47595024,-0.19735119,-0.086237684,0.01782427,0.016742228,2.0407577,4.3264723,8.628404,0,0,0,0,0,0,0,0,0,0,0,0,0,0,0,0,0,0,0,0,0
112,-2.8886175,-0.4754291,-0.19745013,-0.05641028,-0.010937869,0.016742228,1.8085201,4.3468227,8.817546,0,0,0,0,0,0,0,0,0,0,0,0,0,0,0,0,0,0,0,0,0
113,-2.8904903,-0.46987778,-0.20026395,0.01070138,-0.0045462823,0.006089584,1.7606361,4.586243,8.746917,0,0,0,0,0,0,0,0,0,0,0,0,0,0,0,0,0,0,0,0,0
114,-2.8911822,-0.4707113,-0.1998935,0.029876139,0.021020064,-0.027998878,1.5559318,4.8328457,8.466795,0,0,0,0,0,0,0,0,0,0,0,0,0,0,0,0,0,0,0,0,0
115,-2.8916984,-0.47154775,-0.1995836,0.04692037,-0.0066768113,-0.041847315,1.5798738,4.848408,8.4703865,0,0,0,0,0,0,0,0,0,0,0,0,0,0,0,0,0,0,0,0,0
116,-2.8906217,-0.4720261,-0.20002009,0.057573017,-0.017329456,-0.039716788,1.8767549,4.6185646,8.337508,0,0,0,0,0,0,0,0,0,0,0,0,0,0,0,0,0,0,0,0,0
117,-2.8813338,-0.47897762,-0.20156138,0.036267728,-0.026916835,-0.065283135,2.0383635,4.3504143,8.343493,0,0,0,0,0,0,0,0,0,0,0,0,0,0,0,0,0,0,0,0,0
118,-2.881181,-0.4786009,-0.20192759,-0.02551761,0.0071716267,-0.06208734,1.865981,4.2402806,8.349479,0,0,0,0,0,0,0,0,0,0,0,0,0,0,0,0,0,0,0,0,0
119,-2.8827324,-0.47853193,-0.20146091,-0.051083956,0.03167271,-0.027998878,1.5439608,4.471321,8.552986,0,0,0,0,0,0,0,0,0,0,0,0,0,0,0,0,0,0,0,0,0
120,-2.8838,-0.47877258,-0.20110409,0.0043097935,-0.03330842,0.03911278,1.6026188,4.6879964,8.629601,0,0,0,0,0,0,0,0,0,0,0,0,0,0,0,0,0,0,0,0,0
121,-2.8830957,-0.4789756,-0.20147546,0.05437722,-0.045026332,0.055091746,1.8947114,4.625747,8.485949,0,0,0,0,0,0,0,0,0,0,0,0,0,0,0,0,0,0,0,0,0
122,-2.8903697,-0.4831765,-0.21095979,0.01815823,0.009302155,0.023133814,2.104204,4.495263,8.433276,0,0,0,0,0,0,0,0,0,0,0,0,0,0,0,0,0,0,0,0,0
123,-2.8900115,-0.48311314,-0.21100177,-0.012734437,0.04871694,-0.015215704,1.8097172,4.455759,8.365042,0,0,0,0,0,0,0,0,0,0,0,0,0,0,0,0,0,0,0,0,0
124,-2.8904536,-0.48337078,-0.21060978,-0.031909198,0.030607443,0.0028937908,1.616984,4.599411,8.34469,0,0,0,0,0,0,0,0,0,0,0,0,0,0,0,0,0,0,0,0,0
125,-2.89048,-0.4835564,-0.21040864,-0.032974463,-0.041830536,-3.0200247E-4,1.7331028,4.67004,8.525453,0,0,0,0,0,0,0,0,0,0,0,0,0,0,0,0,0,0,0,0,0
126,-2.8884504,-0.4839246,-0.21373613,0.0043097935,-0.01626419,-0.012019911,1.8911201,4.5575128,8.523059,0,0,0,0,0,0,0,0,0,0,0,0,0,0,0,0,0,0,0,0,0
127,-2.8890474,-0.48358122,-0.21341951,-0.016995495,0.05404326,-0.010954646,1.7199347,4.407875,8.576928,0,0,0,0,0,0,0,0,0,0,0,0,0,0,0,0,0,0,0,0,0
128,-2.8903527,-0.483243,-0.21280232,0.009627061,0.012493688,0.023135945,1.5858593,4.4006925,8.590096,0,0,0,0,0,0,0,0,0,0,0,0,0,0,0,0,0,0,0,0,0
129,-2.8901658,-0.4831226,-0.21275508,0.04371552,-0.038639005,0.04657176,1.8121114,4.4856863,8.483555,0,0,0,0,0,0,0,0,0,0,0,0,0,0,0,0,0,0,0,0,0
130,-2.8891697,-0.48344943,-0.21287374,0.023475498,0.012493688,0.03165806,1.865981,4.692785,8.396166,0,0,0,0,0,0,0,0,0,0,0,0,0,0,0,0,0,0,0,0,0
131,-2.892622,-0.48507762,-0.21320303,0.03093235,-0.021594774,0.02420121,1.8576013,4.7765822,8.36983,0,0,0,0,0,0,0,0,0,0,0,0,0,0,0,0,0,0,0,0,0
132,-2.8905265,-0.48536786,-0.21374877,0.014953383,-0.053552706,0.007156979,1.9988592,4.5802574,8.150761,0,0,0,0,0,0,0,0,0,0,0,0,0,0,0,0,0,0,0,0,0
133,-2.8897767,-0.48510244,-0.21396498,-0.044701423,-0.013072658,-0.037584126,1.9306244,4.4270287,8.45243,0,0,0,0,0,0,0,0,0,0,0,0,0,0,0,0,0,0,0,0,0
134,-2.890446,-0.48470354,-0.21361072,-0.050027747,0.03486424,-0.026931483,1.7223289,4.433014,8.663119,0,0,0,0,0,0,0,0,0,0,0,0,0,0,0,0,0,0,0,0,0
135,-2.8899448,-0.48056117,-0.20990506,-0.025526665,0.013558952,0.0028959212,1.7067665,4.553921,8.709806,0,0,0,0,0,0,0,0,0,0,0,0,0,0,0,0,0,0,0,0,0
136,-2.8887463,-0.48063952,-0.21029648,0.046911314,-0.019464245,-0.0045609297,2.0012534,4.6305356,8.567351,0,0,0,0,0,0,0,0,0,0,0,0,0,0,0,0,0,0,0,0,0
137,-2.8869746,-0.48081473,-0.21089497,0.0032354745,0.074279025,-0.0354536,2.0144215,4.509629,8.2237835,0,0,0,0,0,0,0,0,0,0,0,0,0,0,0,0,0,0,0,0,0
138,-2.8870747,-0.48109007,-0.21067317,-0.070267774,0.100910634,-0.055693623,1.6636709,4.5204024,8.215404,0,0,0,0,0,0,0,0,0,0,0,0,0,0,0,0,0,0,0,0,0
139,-2.888533,-0.4812442,-0.20995435,-0.04150563,-0.016268453,-0.018409368,1.4912884,4.562301,8.447641,0,0,0,0,0,0,0,0,0,0,0,0,0,0,0,0,0,0,0,0,0
140,-2.8867602,-0.47730723,-0.21257472,-0.042570896,-0.031182153,0.010352773,1.5990275,4.5072346,8.511087,0,0,0,0,0,0,0,0,0,0,0,0,0,0,0,0,0,0,0,0,0
141,-2.8875523,-0.47699952,-0.21224016,-0.056419335,-2.8948562E-4,0.02633174,1.7702129,4.5287824,8.922891,0,0,0,0,0,0,0,0,0,0,0,0,0,0,0,0,0,0,0,0,0
142,-2.8875167,-0.47681344,-0.21223047,0.023475498,0.018885273,0.003961186,1.9174563,4.607791,8.919299,0,0,0,0,0,0,0,0,0,0,0,0,0,0,0,0,0,0,0,0,0
143,-2.8869705,-0.4768845,-0.21234903,0.021344969,0.07854008,-0.03864939,1.913865,4.607791,8.633192,0,0,0,0,0,0,0,0,0,0,0,0,0,0,0,0,0,0,0,0,0
144,-2.8774033,-0.47784466,-0.18818462,-0.022342857,0.21275754,-0.057821486,2.1461027,4.647295,8.584111,0,0,0,0,0,0,0,0,0,0,0,0,0,0,0,0,0,0,0,0,0
145,-2.8737102,-0.47842947,-0.18998721,-0.07880187,0.29904395,-0.16221741,2.3101053,4.671237,8.08492,0,0,0,0,0,0,0,0,0,0,0,0,0,0,0,0,0,0,0,0,0
146,-2.8737483,-0.4781176,-0.19029082,-0.28333265,0.34058928,-0.22080694,1.8216882,4.4617443,8.754099,0,0,0,0,0,0,0,0,0,0,0,0,0,0,0,0,0,0,0,0,0
147,-2.8745189,-0.47793224,-0.19022426,-0.2545705,0.3246103,-0.19311006,1.5810709,4.3085155,8.357859,0,0,0,0,0,0,0,0,0,0,0,0,0,0,0,0,0,0,0,0,0
148,-2.8791487,-0.47682053,-0.18834084,-0.37494537,0.27454287,-0.16754372,0.9358336,4.38513,9.712977,0,0,0,0,0,0,0,0,0,0,0,0,0,0,0,0,0,0,0,0,0
149,-2.856537,-0.43342856,-0.1424352,-0.06175764,0.13179745,0.09344606,0.73112935,4.4138603,9.973945,0,0,0,0,0,0,0,0,0,0,0,0,0,0,0,0,0,0,0,0,0
150,-2.8601966,-0.4345484,-0.14161982,-0.1288693,0.4172883,0.24577887,0.86999303,4.565892,8.527847,0,0,0,0,0,0,0,0,0,0,0,0,0,0,0,0,0,0,0,0,0
151,-2.8639183,-0.43452385,-0.140653,-0.48360234,0.76562977,0.218082,0.9310452,4.6245503,9.952397,0,0,0,0,0,0,0,0,0,0,0,0,0,0,0,0,0,0,0,0,0
152,-2.8682923,-0.43419713,-0.13905293,-0.24072206,0.653777,0.35443583,0.60543376,4.4389997,9.970354,0,0,0,0,0,0,0,0,0,0,0,0,0,0,0,0,0,0,0,0,0
153,-2.9405234,-0.41739088,-0.09132223,-0.0010375675,0.4236799,0.55470556,-0.082899235,3.7087681,9.206603,0,0,0,0,0,0,0,0,0,0,0,0,0,0,0,0,0,0,0,0,0
154,-2.9471126,-0.41763818,-0.08916629,0.27912697,0.11368795,0.9073081,-0.14634559,4.07149,8.882189,0,0,0,0,0,0,0,0,0,0,0,0,0,0,0,0,0,0,0,0,0
155,-2.9483745,-0.41776535,-0.08913075,0.5113546,-0.36781156,1.1693631,0.74190325,3.8368578,8.467992,0,0,0,0,0,0,0,0,0,0,0,0,0,0,0,0,0,0,0,0,0
156,-2.9452546,-0.41881663,-0.090440415,0.6636874,-0.81096154,1.19706,1.2434886,4.1050086,7.978378,0,0,0,0,0,0,0,0,0,0,0,0,0,0,0,0,0,0,0,0,0
157,-2.9352024,-0.42025974,-0.09535851,0.5379862,-0.73745835,1.0191609,2.615366,4.2366896,7.480384,0,0,0,0,0,0,0,0,0,0,0,0,0,0,0,0,0,0,0,0,0
158,-3.0788095,-0.4635355,-0.24600305,0.1885795,-0.13877971,0.7017121,2.1269488,4.2965446,8.034641,0,0,0,0,0,0,0,0,0,0,0,0,0,0,0,0,0,0,0,0,0
159,-3.0742686,-0.46437877,-0.24652861,0.02239825,-0.056754358,0.70810366,2.3460183,4.8304515,8.402152,0,0,0,0,0,0,0,0,0,0,0,0,0,0,0,0,0,0,0,0,0
160,-3.072402,-0.46641195,-0.24721098,-0.63273937,-0.18991241,0.72514784,2.3232734,5.329643,8.059781,0,0,0,0,0,0,0,0,0,0,0,0,0,0,0,0,0,0,0,0,0
161,-3.071445,-0.46497694,-0.24855049,-0.6497969,0.37147555,0.6495173,3.054702,4.1169796,9.400534,0,0,0,0,0,0,0,0,0,0,0,0,0,0,0,0,0,0,0,0,0
162,-3.1337197,-0.41094863,-0.185347,-0.03620461,0.6037032,0.3373948,3.2857425,3.067122,9.801562,0,0,0,0,0,0,0,0,0,0,0,0,0,0,0,0,0,0,0,0,0
163,-3.1357956,-0.41025022,-0.18610613,0.4911013,0.01567723,0.148843,2.1796215,3.885939,9.598055,0,0,0,0,0,0,0,0,0,0,0,0,0,0,0,0,0,0,0,0,0
164,-3.1337833,-0.4124303,-0.18823743,0.7542216,-0.11108924,0.32887268,2.4322097,4.8184805,8.071752,0,0,0,0,0,0,0,0,0,0,0,0,0,0,0,0,0,0,0,0,0
165,-3.1217263,-0.41506347,-0.1934104,0.32492003,-0.02267229,0.30011055,3.1229367,4.371962,6.516718,0,0,0,0,0,0,0,0,0,0,0,0,0,0,0,0,0,0,0,0,0
166,-3.0998437,-0.341689,-0.21758802,-0.5709674,-0.14304717,0.07320923,4.0925884,4.3432317,6.352715,0,0,0,0,0,0,0,0,0,0,0,0,0,0,0,0,0,0,0,0,0
167,-3.105235,-0.34078035,-0.21644099,-1.0386184,0.17333637,-0.017338244,1.6445173,3.1461306,10.175058,0,0,0,0,0,0,0,0,0,0,0,0,0,0,0,0,0,0,0,0,0
168,-3.1262484,-0.3438793,-0.20472561,-0.25671434,1.1033123,0.13819036,-3.1750107,4.7562313,8.202236,0,0,0,0,0,0,0,0,0,0,0,0,0,0,0,0,0,0,0,0,0
169,-3.1234496,-0.34136304,-0.20812543,0.7265247,0.99891627,1.9704452,3.9034467,2.3632267,9.924864,0,0,0,0,0,0,0,0,0,0,0,0,0,0,0,0,0,0,0,0,0
170,-3.117788,-0.33971226,-0.2130473,-0.45911458,-0.21868095,0.86683124,4.689942,2.830096,9.605238,0,0,0,0,0,0,0,0,0,0,0,0,0,0,0,0,0,0,0,0,0
171,-3.1317813,-0.30898926,-0.21781357,-0.08414151,0.22979538,-0.42107347,3.1193454,2.5739164,8.616432,0,0,0,0,0,0,0,0,0,0,0,0,0,0,0,0,0,0,0,0,0
172,-3.1402566,-0.3110636,-0.21601617,-0.28654176,0.38425872,-0.07805832,1.2949638,4.443788,10.066122,0,0,0,0,0,0,0,0,0,0,0,0,0,0,0,0,0,0,0,0,0
173,-3.1411257,-0.3097248,-0.21672083,0.8319859,0.28731966,0.45883495,3.029563,2.4984992,10.41807,0,0,0,0,0,0,0,0,0,0,0,0,0,0,0,0,0,0,0,0,0
174,-3.1356542,-0.31191525,-0.2195629,1.5861931,-0.24637783,0.22660731,3.444957,4.371962,9.185056,0,0,0,0,0,0,0,0,0,0,0,0,0,0,0,0,0,0,0,0,0
175,3.0128229,-0.47905102,-0.34069586,1.279397,-0.702311,0.15523459,1.6636709,7.2007113,5.891831,0,0,0,0,0,0,0,0,0,0,0,0,0,0,0,0,0,0,0,0,0
176,3.0210085,-0.47648388,-0.341589,0.5550172,-0.79392374,0.4875971,3.0211833,2.9402294,7.4480624,0,0,0,0,0,0,0,0,0,0,0,0,0,0,0,0,0,0,0,0,0
177,3.0242424,-0.47649762,-0.34097654,-0.35578394,0.9861331,0.26708737,2.4322097,4.109797,7.5677724,0,0,0,0,0,0,0,0,0,0,0,0,0,0,0,0,0,0,0,0,0
178,3.022623,-0.47564352,-0.33897218,-0.5400912,0.6186092,0.11795407,2.5962124,4.589834,10.1582985,0,0,0,0,0,0,0,0,0,0,0,0,0,0,0,0,0,0,0,0,0
179,3.0292704,-0.4750946,-0.3397238,0.2205076,0.1296528,-0.28365064,3.6556468,4.7801733,9.24491,0,0,0,0,0,0,0,0,0,0,0,0,0,0,0,0,0,0,0,0,0
180,2.9760864,-0.5500503,-0.31670275,0.53689116,0.13924018,-0.016269252,2.3819313,6.703914,6.9404917,0,0,0,0,0,0,0,0,0,0,0,0,0,0,0,0,0,0,0,0,0
181,2.9213414,-0.55543166,-0.31607184,0.80959886,-0.10577064,0.63780314,1.8468274,7.0235405,6.3000426,0,0,0,0,0,0,0,0,0,0,0,0,0,0,0,0,0,0,0,0,0
182,2.8677835,-0.56092286,-0.31576046,1.1217213,0.88812107,1.0383425,1.5954362,5.893477,5.1484313,0,0,0,0,0,0,0,0,0,0,0,0,0,0,0,0,0,0,0,0,0
183,2.7810948,-0.56446725,-0.31849483,0.5102595,1.3195531,1.0873446,3.1756094,6.298097,6.3946133,0,0,0,0,0,0,0,0,0,0,0,0,0,0,0,0,0,0,0,0,0
184,2.7483006,-0.555215,-0.28439605,-2.1305289E-6,0.43751422,0.2873311,2.9002762,6.3615437,7.6395984,0,0,0,0,0,0,0,0,0,0,0,0,0,0,0,0,0,0,0,0,0
185,2.6750016,-0.56004846,-0.28785464,0.24713922,0.1477623,0.17228255,3.0008326,6.954108,6.0977325,0,0,0,0,0,0,0,0,0,0,0,0,0,0,0,0,0,0,0,0,0
186,2.6180537,-0.5661298,-0.28971764,0.26950976,0.76348513,0.9669698,2.3639748,7.446117,5.9014077,0,0,0,0,0,0,0,0,0,0,0,0,0,0,0,0,0,0,0,0,0
187,2.6332684,-0.5645246,-0.29253244,0.39840677,1.0298012,1.7744403,4.0411134,5.1141644,8.800786,0,0,0,0,0,0,0,0,0,0,0,0,0,0,0,0,0,0,0,0,0
188,2.6450949,-0.56529355,-0.2943524,0.6519397,0.6250008,1.7818971,2.9325979,5.891083,7.1763206,0,0,0,0,0,0,0,0,0,0,0,0,0,0,0,0,0,0,0,0,0
189,2.2910407,-0.5466349,-0.36414623,0.30253297,0.92860115,2.2080028,1.5966333,6.945729,6.0390744,0,0,0,0,0,0,0,0,0,0,0,0,0,0,0,0,0,0,0,0,0
190,2.2954533,-0.5405927,-0.35699174,0.3909499,1.2130268,2.6586096,0.069132574,2.686444,10.766426,0,0,0,0,0,0,0,0,0,0,0,0,0,0,0,0,0,0,0,0,0
191,2.3034532,-0.5332563,-0.35406792,1.5936334,0.7357883,1.6615223,2.3089082,1.9370588,10.790368,0,0,0,0,0,0,0,0,0,0,0,0,0,0,0,0,0,0,0,0,0
192,2.282369,-0.539153,-0.3499971,0.6221123,0.78692096,1.5230378,0.86640173,6.2933087,5.712266,0,0,0,0,0,0,0,0,0,0,0,0,0,0,0,0,0,0,0,0,0
193,1.9970087,-0.33760446,-0.27555874,-0.97791487,1.4910607,2.4072073,-1.0633248,4.932205,8.331523,0,0,0,0,0,0,0,0,0,0,0,0,0,0,0,0,0,0,0,0,0
194,2.0043855,-0.3362438,-0.27255985,-0.42185137,0.45455632,1.7978772,1.4697405,3.1114147,10.610803,0,0,0,0,0,0,0,0,0,0,0,0,0,0,0,0,0,0,0,0,0
195,2.0011048,-0.339878,-0.27031723,0.34513903,-0.2783456,1.1991985,1.333271,4.7562313,8.239346,0,0,0,0,0,0,0,0,0,0,0,0,0,0,0,0,0,0,0,0,0
196,1.9929621,-0.34594348,-0.26518777,0.32596424,-0.09085906,1.5177126,0.09427169,5.1033907,6.80881,0,0,0,0,0,0,0,0,0,0,0,0,0,0,0,0,0,0,0,0,0
197,1.9917836,-0.34703737,-0.2613097,0.66791415,0.39170572,1.5528663,0.59226567,3.5220203,8.294413,0,0,0,0,0,0,0,0,0,0,0,0,0,0,0,0,0,0,0,0,0
198,1.7690998,-0.42942122,-0.27022427,1.1355653,0.6857187,1.1597837,1.7115549,3.9721303,8.0933,0,0,0,0,0,0,0,0,0,0,0,0,0,0,0,0,0,0,0,0,0
199,1.7587576,-0.43514836,-0.26823607,0.33129057,1.2396562,1.56778,1.1501147,5.8839,6.6675525,0,0,0,0,0,0,0,0,0,0,0,0,0,0,0,0,0,0,0,0,0
200,1.7548934,-0.43719202,-0.26785064,-0.18536267,1.0543002,1.7627234,2.1580737,5.2183123,8.488343,0,0,0,0,0,0,0,0,0,0,0,0,0,0,0,0,0,0,0,0,0
201,1.7542081,-0.43786183,-0.26570687,0.43142542,0.6175418,1.2236996,1.2578537,4.0008607,7.7617025,0,0,0,0,0,0,0,0,0,0,0,0,0,0,0,0,0,0,0,0,0
202,1.5874302,-0.48890454,-0.19299214,0.51877713,1.1320645,0.96164453,1.105822,6.008399,6.376657,0,0,0,0,0,0,0,0,0,0,0,0,0,0,0,0,0,0,0,0,0
203,1.5768056,-0.49172822,-0.19657445,0.4474044,1.311029,1.031952,2.8368297,5.68997,7.268497,0,0,0,0,0,0,0,0,0,0,0,0,0,0,0,0,0,0,0,0,0
204,1.5699325,-0.49454555,-0.19687088,0.7051984,1.31529,1.1278259,1.7522564,6.1221232,8.165126,0,0,0,0,0,0,0,0,0,0,0,0,0,0,0,0,0,0,0,0,0
205,1.5677265,-0.49464864,-0.19802037,0.9459482,0.8060936,0.96484035,2.3962967,5.1991587,9.217378,0,0,0,0,0,0,0,0,0,0,0,0,0,0,0,0,0,0,0,0,0
206,1.5648339,-0.49494419,-0.19855306,1.3496834,0.4460342,0.35763964,2.1030068,5.273379,9.203012,0,0,0,0,0,0,0,0,0,0,0,0,0,0,0,0,0,0,0,0,0
207,1.4701998,-0.67586887,-0.16801573,1.1653926,1.2567004,0.71237266,-0.2971803,6.9888244,6.4796076,0,0,0,0,0,0,0,0,0,0,0,0,0,0,0,0,0,0,0,0,0
208,1.4712297,-0.6742915,-0.1614208,-0.51772517,1.4814712,0.88068444,-1.0501567,4.433014,6.436512,0,0,0,0,0,0,0,0,0,0,0,0,0,0,0,0,0,0,0,0,0
209,1.4695306,-0.67078847,-0.16288844,-1.2974987,0.9999717,0.6037157,2.4741082,5.797709,10.342652,0,0,0,0,0,0,0,0,0,0,0,0,0,0,0,0,0,0,0,0,0
210,1.4778339,-0.6633471,-0.16499117,-0.42185137,0.9935801,0.80292016,2.650082,3.0814872,9.64953,0,0,0,0,0,0,0,0,0,0,0,0,0,0,0,0,0,0,0,0,0
211,1.3624728,-0.68468654,-0.12368557,0.25032595,0.81567883,0.5813462,2.1939867,6.584204,8.4703865,0,0,0,0,0,0,0,0,0,0,0,0,0,0,0,0,0,0,0,0,0
212,1.3517283,-0.68369615,-0.12546161,0.012771988,0.7443061,0.8668371,1.6469115,5.7558107,7.6336126,0,0,0,0,0,0,0,0,0,0,0,0,0,0,0,0,0,0,0,0,0
213,1.356489,-0.6762029,-0.12883393,-0.7137383,0.8305925,0.9925383,2.7422588,3.020435,9.054571,0,0,0,0,0,0,0,0,0,0,0,0,0,0,0,0,0,0,0,0,0
214,1.3479156,-0.6701856,-0.13362105,-0.15767032,-0.23573716,-0.0258545,3.0128036,3.2981625,7.8095865,0,0,0,0,0,0,0,0,0,0,0,0,0,0,0,0,0,0,0,0,0
215,1.3423437,-0.6717283,-0.12845837,0.2695007,-0.80139256,-1.1081631,-0.9615713,7.174375,7.682694,0,0,0,0,0,0,0,0,0,0,0,0,0,0,0,0,0,0,0,0,0
216,1.4905697,-0.6752245,-0.10625438,-0.56140554,0.36720252,-0.05674717,0.1110311,4.4629416,7.0841436,0,0,0,0,0,0,0,0,0,0,0,0,0,0,0,0,0,0,0,0,0
217,1.492602,-0.66754466,-0.10651666,0.03194675,1.1150181,0.35870597,1.272219,3.2023945,10.607211,0,0,0,0,0,0,0,0,0,0,0,0,0,0,0,0,0,0,0,0,0
218,1.4944353,-0.65990394,-0.10803158,0.27163124,1.1246055,0.6154347,1.9797056,3.2059858,10.741286,0,0,0,0,0,0,0,0,0,0,0,0,0,0,0,0,0,0,0,0,0
219,1.4926518,-0.6539555,-0.1072915,0.74460864,0.586647,0.28200692,0.6976105,3.7279217,9.805154,0,0,0,0,0,0,0,0,0,0,0,0,0,0,0,0,0,0,0,0,0
220,1.4724385,-0.71544355,-0.12526679,0.52942526,0.2660024,-0.041833468,0.45340195,3.5363855,8.952818,0,0,0,0,0,0,0,0,0,0,0,0,0,0,0,0,0,0,0,0,0
221,1.469112,-0.70851934,-0.12549953,0.9576615,1.3291363,-2.8815403E-4,1.3907319,3.9434,10.094852,0,0,0,0,0,0,0,0,0,0,0,0,0,0,0,0,0,0,0,0,0
222,1.4607296,-0.7062164,-0.12154588,1.0652533,1.6817389,0.15950151,-0.5952584,5.5666685,8.232163,0,0,0,0,0,0,0,0,0,0,0,0,0,0,0,0,0,0,0,0,0
223,1.4512341,-0.7025819,-0.11999994,0.55605686,0.71980506,0.18293732,0.41389763,5.4134398,9.347861,0,0,0,0,0,0,0,0,0,0,0,0,0,0,0,0,0,0,0,0,0
224,1.4350717,-0.7025113,-0.119266234,0.59440637,0.14456224,-0.055681903,0.58268887,5.8862944,6.9776015,0,0,0,0,0,0,0,0,0,0,0,0,0,0,0,0,0,0,0,0,0
225,1.4474763,-0.749157,-0.10929885,0.17043112,-0.7076493,-0.38165283,0.22236149,5.783344,9.833884,0,0,0,0,0,0,0,0,0,0,0,0,0,0,0,0,0,0,0,0,0
226,1.4317625,-0.74714047,-0.10968908,0.64873487,-0.4977922,-0.31241062,0.9513959,5.6109614,7.3451114,0,0,0,0,0,0,0,0,0,0,0,0,0,0,0,0,0,0,0,0,0
227,1.4213247,-0.7453599,-0.10730767,0.48468414,0.16693279,-0.07272614,-0.069731124,5.746234,7.4325,0,0,0,0,0,0,0,0,0,0,0,0,0,0,0,0,0,0,0,0,0
228,1.4117117,-0.7423482,-0.105995014,0.4782763,0.41619667,-0.18670544,0.33848026,5.49604,8.117242,0,0,0,0,0,0,0,0,0,0,0,0,0,0,0,0,0,0,0,0,0
229,1.3716896,-0.8297145,-0.12661842,0.65617543,-0.07702075,0.09132858,0.74190325,5.135712,6.824373,0,0,0,0,0,0,0,0,0,0,0,0,0,0,0,0,0,0,0,0,0
230,1.3643909,-0.8251079,-0.12500945,0.09371584,-0.100456566,-0.059938967,0.27982232,5.0207906,7.8036013,0,0,0,0,0,0,0,0,0,0,0,0,0,0,0,0,0,0,0,0,0
231,1.3603431,-0.81924856,-0.123673975,0.3674888,-0.06317231,-0.056743175,0.47973818,4.8531966,8.228572,0,0,0,0,0,0,0,0,0,0,0,0,0,0,0,0,0,0,0,0,0
232,1.3573056,-0.8137097,-0.12192257,0.86922836,0.012461463,-0.2623392,0.26426002,4.411466,7.316381,0,0,0,0,0,0,0,0,0,0,0,0,0,0,0,0,0,0,0,0,0
233,1.348358,-0.81407464,-0.117358446,1.1717634,0.719797,-0.1877707,-0.5114613,5.2925324,4.79409,0,0,0,0,0,0,0,0,0,0,0,0,0,0,0,0,0,0,0,0,0
234,1.3592881,-0.9540674,0.042926274,-0.078857,0.55894214,-0.10361481,-0.36302084,6.521955,5.8295817,0,0,0,0,0,0,0,0,0,0,0,0,0,0,0,0,0,0,0,0,0
235,1.3598415,-0.9461412,0.0424953,-1.2538437,-0.46264648,-0.26340446,-0.1882441,5.4936457,8.804378,0,0,0,0,0,0,0,0,0,0,0,0,0,0,0,0,0,0,0,0,0
236,1.3595047,-0.9396154,0.04405613,-0.0074842814,-0.26237676,-0.36353934,-1.1351509,6.7374334,9.371803,0,0,0,0,0,0,0,0,0,0,0,0,0,0,0,0,0,0,0,0,0
237,1.3521675,-0.9367316,0.045019098,0.50171214,-0.4200359,-0.22825074,-0.67187285,7.4449196,7.266103,0,0,0,0,0,0,0,0,0,0,0,0,0,0,0,0,0,0,0,0,0
238,1.3756186,-0.92735153,0.0044497726,-0.121467575,-0.46051595,-0.0918969,-0.9651626,7.652018,7.0997057,0,0,0,0,0,0,0,0,0,0,0,0,0,0,0,0,0,0,0,0,0
239,1.3676765,-0.92452604,0.0058089113,-0.31641096,0.15733743,-0.0024146882,-0.5318121,7.3611226,7.3319435,0,0,0,0,0,0,0,0,0,0,0,0,0,0,0,0,0,0,0,0,0
240,1.3680096,-0.9186236,0.008800568,-0.41867635,0.28836495,-0.15368223,-1.5960348,7.5095634,10.188226,0,0,0,0,0,0,0,0,0,0,0,0,0,0,0,0,0,0,0,0,0
241,1.3697927,-0.91192573,0.0111452965,0.5347353,-0.24107148,0.029543245,-1.278803,6.7194767,10.092458,0,0,0,0,0,0,0,0,0,0,0,0,0,0,0,0,0,0,0,0,0
242,1.3608264,-0.90866446,0.010841806,1.1589803,-0.22722304,0.054044325,0.030825347,7.1109285,7.650372,0,0,0,0,0,0,0,0,0,0,0,0,0,0,0,0,0,0,0,0,0
243,1.3559406,-1.0658276,0.014874107,1.0055822,0.37039033,-0.0588737,-0.8334815,7.2617636,5.7852893,0,0,0,0,0,0,0,0,0,0,0,0,0,0,0,0,0,0,0,0,0
244,1.3496219,-1.0624932,0.0193469,0.5634823,0.36292627,0.19253217,-1.4404116,7.6687775,5.924153,0,0,0,0,0,0,0,0,0,0,0,0,0,0,0,0,0,0,0,0,0
245,1.3370763,-1.0610812,0.020381853,0.42393264,0.24894297,0.28201437,-0.3486556,7.5095634,4.895843,0,0,0,0,0,0,0,0,0,0,0,0,0,0,0,0,0,0,0,0,0
246,1.3232565,-1.0596378,0.020191,-0.060762685,0.79116255,0.12968156,-0.055365913,7.764546,5.10773,0,0,0,0,0,0,0,0,0,0,0,0,0,0,0,0,0,0,0,0,0
247,1.3106769,-1.0106903,0.12095331,-0.36116725,0.62924236,7.8456727E-4,-0.8310873,7.4413285,6.4317236,0,0,0,0,0,0,0,0,0,0,0,0,0,0,0,0,0,0,0,0,0
248,1.303946,-1.0095987,0.12244391,-0.18220283,0.53230333,0.06470043,-1.1088147,8.086566,5.5997386,0,0,0,0,0,0,0,0,0,0,0,0,0,0,0,0,0,0,0,0,0
249,1.296216,-1.0081916,0.122661136,-0.07567638,0.39808,0.09133204,-0.77003515,7.920169,5.7421937,0,0,0,0,0,0,0,0,0,0,0,0,0,0,0,0,0,0,0,0,0
250,1.2865456,-1.0081394,0.12276443,-0.025608957,0.37251365,0.033807766,-0.65032506,8.04347,5.059846,0,0,0,0,0,0,0,0,0,0,0,0,0,0,0,0,0,0,0,0,0
251,1.2775002,-1.0074624,0.12264342,-0.23546605,0.19781028,0.023155121,-0.64433956,8.148815,5.4955907,0,0,0,0,0,0,0,0,0,0,0,0,0,0,0,0,0,0,0,0,0
252,1.2597908,-0.9668412,0.13278,-0.40058205,0.08595752,-0.008802813,-0.4468179,7.456891,7.134422,0,0,0,0,0,0,0,0,0,0,0,0,0,0,0,0,0,0,0,0,0
253,1.2616498,-0.9601286,0.13076197,0.03830691,-0.3902157,-0.13024296,-0.28640637,6.568642,8.981548,0,0,0,0,0,0,0,0,0,0,0,0,0,0,0,0,0,0,0,0,0
254,1.2627506,-0.95432353,0.13031316,0.79251415,-0.6107254,-0.28683683,-0.8598177,6.2992945,7.906552,0,0,0,0,0,0,0,0,0,0,0,0,0,0,0,0,0,0,0,0,0
255,1.2551239,-0.9526537,0.12968343,1.0204808,-0.4551968,-0.21865991,-0.5342063,6.428581,5.3878517,0,0,0,0,0,0,0,0,0,0,0,0,0,0,0,0,0,0,0,0,0
256,1.336742,-1.0313191,0.18050566,0.45695582,-0.051461592,-0.34862217,-0.36421794,6.7613754,5.3830633,0,0,0,0,0,0,0,0,0,0,0,0,0,0,0,0,0,0,0,0,0
257,1.3332374,-1.0264466,0.18044494,0.22898924,-0.02696051,-0.45301807,-1.24289,7.0726213,6.9297175,0,0,0,0,0,0,0,0,0,0,0,0,0,0,0,0,0,0,0,0,0
258,1.3251116,-1.0231694,0.17865273,0.4580211,0.0028668928,-0.31986,-0.56413376,7.2617636,6.1935005,0,0,0,0,0,0,0,0,0,0,0,0,0,0,0,0,0,0,0,0,0
259,1.3192103,-1.0204349,0.17847066,0.4100842,-0.06531003,-0.32731688,-1.0322002,7.4975924,6.0294976,0,0,0,0,0,0,0,0,0,0,0,0,0,0,0,0,0,0,0,0,0
260,1.3159472,-1.0189507,0.18132694,0.45695582,-0.13348696,-0.24422625,-1.7971476,7.8950295,5.3998227,0,0,0,0,0,0,0,0,0,0,0,0,0,0,0,0,0,0,0,0,0
261,1.3878816,-1.0701324,0.22401159,0.27798554,-0.3497383,-0.15580797,-1.0860697,7.8435545,5.166388,0,0,0,0,0,0,0,0,0,0,0,0,0,0,0,0,0,0,0,0,0
262,1.3817608,-1.0678083,0.22404248,0.14802329,-0.14094646,-0.23783334,-1.2596494,7.9417167,5.4896054,0,0,0,0,0,0,0,0,0,0,0,0,0,0,0,0,0,0,0,0,0
263,1.3792768,-1.0644717,0.22559544,0.09795586,-0.19527495,-0.26979128,-1.8617911,7.911789,5.982811,0,0,0,0,0,0,0,0,0,0,0,0,0,0,0,0,0,0,0,0,0
264,1.3781422,-1.0610498,0.22746868,0.13097906,-0.32310668,-0.17498273,-1.9539678,7.7394066,5.9109845,0,0,0,0,0,0,0,0,0,0,0,0,0,0,0,0,0,0,0,0,0
265,1.4027174,-1.0694842,0.22569568,0.1416317,-0.11324959,0.0103732785,-1.8558056,7.55625,6.233005,0,0,0,0,0,0,0,0,0,0,0,0,0,0,0,0,0,0,0,0,0
266,1.3994918,-1.0658187,0.22559884,0.26839817,-0.07170428,0.16590188,-1.2991537,7.2653546,5.786486,0,0,0,0,0,0,0,0,0,0,0,0,0,0,0,0,0,0,0,0,0
267,1.3968008,-1.0627139,0.22624564,0.33550984,-0.21338445,0.3001252,-1.4416087,7.278523,5.464466,0,0,0,0,0,0,0,0,0,0,0,0,0,0,0,0,0,0,0,0,0
268,1.3990883,-1.0650399,0.23832262,0.38344672,-0.034420025,0.44180536,-4.998195,16.39325,4.570232,0,0,0,0,0,0,0,0,0,0,0,0,0,0,0,0,0,0,0,0,0
269,1.3674974,-1.062493,0.22531284,-0.25890774,-0.05039899,-0.36033875,2.0599113,7.006781,4.7114897,0,0,0,0,0,0,0,0,0,0,0,0,0,0,0,0,0,0,0,0,0
270,1.4414003,-0.99488103,0.27634788,-0.23440665,-0.16651282,-0.913211,-2.4986486,6.842778,8.192659,0,0,0,0,0,0,0,0,0,0,0,0,0,0,0,0,0,0,0,0,0
271,1.4459621,-0.9915678,0.2812388,0.78611666,-1.0272465,-0.2985534,-3.3282397,7.3012676,5.8008513,0,0,0,0,0,0,0,0,0,0,0,0,0,0,0,0,0,0,0,0,0
272,1.4395988,-0.9952407,0.28404397,0.7307229,-0.61498916,0.120095514,-1.4619594,8.557027,3.2606034,0,0,0,0,0,0,0,0,0,0,0,0,0,0,0,0,0,0,0,0,0
273,1.4343863,-0.9973128,0.28521577,0.09582533,-0.05998637,0.026352245,-1.4009073,8.169166,3.9273887,0,0,0,0,0,0,0,0,0,0,0,0,0,0,0,0,0,0,0,0,0
274,1.4184301,-0.98912513,0.27968138,-0.13001072,0.150936,0.13394395,-1.1614871,7.022343,4.845565,0,0,0,0,0,0,0,0,0,0,0,0,0,0,0,0,0,0,0,0,0
275,1.4146652,-0.9874353,0.27533773,-0.08526962,0.015647402,0.29799467,-0.36661214,7.4676647,5.858312,0,0,0,0,0,0,0,0,0,0,0,0,0,0,0,0,0,0,0,0,0
276,1.4025766,-0.986111,0.26640478,0.12991379,-0.662926,0.19892508,0.9897031,7.6436386,5.720646,0,0,0,0,0,0,0,0,0,0,0,0,0,0,0,0,0,0,0,0,0
277,1.3786632,-0.9857208,0.25389114,-0.018157965,-0.95054746,-0.14515533,1.9246389,7.9297457,5.1244893,0,0,0,0,0,0,0,0,0,0,0,0,0,0,0,0,0,0,0,0,0
278,1.4599586,-0.92278,0.21289247,-0.3548055,-0.8110092,-0.4998828,1.2626421,7.816021,6.3132105,0,0,0,0,0,0,0,0,0,0,0,0,0,0,0,0,0,0,0,0,0
279,1.4552525,-0.92229754,0.20852895,-0.025638783,-0.5127352,-0.5648639,0.032022446,7.614908,6.0594254,0,0,0,0,0,0,0,0,0,0,0,0,0,0,0,0,0,0,0,0,0
280,1.4547577,-0.9252573,0.21323606,-0.13749155,-0.22404854,-0.5392976,-2.620753,11.157129,5.511153,0,0,0,0,0,0,0,0,0,0,0,0,0,0,0,0,0,0,0,0,0
281,1.457289,-0.9237163,0.21285152,-0.48370248,-0.5010173,-0.5840387,-1.2632407,7.4317517,6.4293294,0,0,0,0,0,0,0,0,0,0,0,0,0,0,0,0,0,0,0,0,0
282,1.4593916,-0.9210101,0.20801888,-0.42191714,0.3203016,-0.17710766,0.21039048,7.3551373,7.3080015,0,0,0,0,0,0,0,0,0,0,0,0,0,0,0,0,0,0,0,0,0
283,1.5209079,-0.8878556,0.29694152,0.20019728,-0.005669337,-0.41466165,-1.2261306,7.6568065,7.578546,0,0,0,0,0,0,0,0,0,0,0,0,0,0,0,0,0,0,0,0,0
284,1.5194077,-0.8892496,0.29643762,0.67423993,-0.58623844,-0.28576463,-1.4128783,7.4796357,5.07062,0,0,0,0,0,0,0,0,0,0,0,0,0,0,0,0,0,0,0,0,0
285,1.51424,-0.89364547,0.29682526,0.23002468,-0.18889482,-0.15473711,-1.2093711,7.824401,3.7011366,0,0,0,0,0,0,0,0,0,0,0,0,0,0,0,0,0,0,0,0,0
286,1.5126457,-0.89566743,0.29702416,-0.27810645,0.11577081,-0.040753823,-1.4499884,7.392247,4.5774145,0,0,0,0,0,0,0,0,0,0,0,0,0,0,0,0,0,0,0,0,0
287,1.5395383,-0.84884536,0.29502344,-0.30686858,-0.165459,-0.22824036,-1.6163855,7.7693343,5.6512136,0,0,0,0,0,0,0,0,0,0,0,0,0,0,0,0,0,0,0,0,0
288,1.5389124,-0.8503623,0.2940751,-0.09488097,-0.7502892,-0.18669505,-1.3602059,7.3599257,5.380669,0,0,0,0,0,0,0,0,0,0,0,0,0,0,0,0,0,0,0,0,0
289,1.5392696,-0.85149497,0.2935485,0.06597396,-0.17930745,0.10199161,-1.5361797,7.423372,5.5997386,0,0,0,0,0,0,0,0,0,0,0,0,0,0,0,0,0,0,0,0,0
290,1.5385972,-0.85266036,0.2919278,0.15545617,-0.09302102,0.204257,-1.2560581,7.6568065,5.8212023,0,0,0,0,0,0,0,0,0,0,0,0,0,0,0,0,0,0,0,0,0
291,1.5374972,-0.85378706,0.28980455,0.30459318,-0.44881934,0.05298945,-1.0980407,7.6316676,5.84275,0,0,0,0,0,0,0,0,0,0,0,0,0,0,0,0,0,0,0,0,0
292,1.5383589,-0.88155943,0.19211021,0.031885494,-0.68317753,0.071098946,-1.2632407,8.157195,5.949292,0,0,0,0,0,0,0,0,0,0,0,0,0,0,0,0,0,0,0,0,0
293,1.5362635,-0.88284355,0.19151205,-0.029899841,-0.12497895,0.22662754,-0.9627684,8.26254,5.8834515,0,0,0,0,0,0,0,0,0,0,0,0,0,0,0,0,0,0,0,0,0
294,1.5347337,-0.8827268,0.18810523,-0.017122528,0.13068157,0.32676375,-0.14155717,8.039879,6.685509,0,0,0,0,0,0,0,0,0,0,0,0,0,0,0,0,0,0,0,0,0
295,1.5362768,-0.8815507,0.18515858,0.5187055,-0.055739693,0.06257816,-0.2983774,7.9070005,7.313987,0,0,0,0,0,0,0,0,0,0,0,0,0,0,0,0,0,0,0,0,0
296,1.7066827,-0.988167,0.32630616,1.0555987,0.1509216,-0.5467531,-0.68982935,10.7572975,4.5211506,0,0,0,0,0,0,0,0,0,0,0,0,0,0,0,0,0,0,0,0,0
297,1.69907,-0.9875993,0.3201487,1.0747736,1.0095247,-0.0034682346,-0.10444705,8.0901575,5.665579,0,0,0,0,0,0,0,0,0,0,0,0,0,0,0,0,0,0,0,0,0
298,1.6925228,-0.98940647,0.31863195,0.56770766,0.5024589,0.08068766,-1.1291654,8.692299,4.5295305,0,0,0,0,0,0,0,0,0,0,0,0,0,0,0,0,0,0,0,0,0
299,1.6798075,-0.9917078,0.31248942,0.4377454,0.7943413,0.14566879,-0.05057751,8.733001,4.395455,0,0,0,0,0,0,0,0,0,0,0,0,0,0,0,0,0,0,0,0,0
300,1.6692158,-0.9947355,0.30853105,0.020161727,0.44919565,0.06790448,-0.4575918,8.780885,3.9764698,0,0,0,0,0,0,0,0,0,0,0,0,0,0,0,0,0,0,0,0,0
301,1.6378074,-0.97724915,0.3240096,-0.35481134,0.18820585,0.10199294,-1.2225392,9.155577,4.287716,0,0,0,0,0,0,0,0,0,0,0,0,0,0,0,0,0,0,0,0,0
302,1.635255,-0.9784826,0.32226405,-0.19395642,0.11044156,0.3459385,-1.2033856,8.719832,4.98802,0,0,0,0,0,0,0,0,0,0,0,0,0,0,0,0,0,0,0,0,0
303,1.6256709,-0.98072714,0.31609738,-0.07038575,-0.040825993,0.43968177,-0.06015432,8.292467,4.3176436,0,0,0,0,0,0,0,0,0,0,0,0,0,0,0,0,0,0,0,0,0
304,1.6192002,-0.98191637,0.31055513,-0.3920956,0.17009637,0.17656146,-0.1810615,7.9177747,4.642058,0,0,0,0,0,0,0,0,0,0,0,0,0,0,0,0,0,0,0,0,0
305,1.5651963,-0.9420963,0.27125832,-0.3058092,-0.00886806,0.1392772,-0.3103484,7.7394066,5.571008,0,0,0,0,0,0,0,0,0,0,0,0,0,0,0,0,0,0,0,0,0
306,1.5611535,-0.9433962,0.26628923,-0.21419644,-0.2528136,0.11903717,-0.10803835,7.4951982,4.736629,0,0,0,0,0,0,0,0,0,0,0,0,0,0,0,0,0,0,0,0,0
307,1.561123,-0.9432005,0.26163462,-0.40168297,-0.06639234,0.15951723,-0.1846528,7.435343,5.500379,0,0,0,0,0,0,0,0,0,0,0,0,0,0,0,0,0,0,0,0,0
308,1.5596579,-0.9425922,0.25516188,-0.2898302,-0.044021785,0.21064992,0.3648165,7.6173024,5.876269,0,0,0,0,0,0,0,0,0,0,0,0,0,0,0,0,0,0,0,0,0
309,1.5538334,-0.9431358,0.24872006,-0.025644643,-0.120720826,0.12968981,0.37559038,8.190714,5.6033297,0,0,0,0,0,0,0,0,0,0,0,0,0,0,0,0,0,0,0,0,0
310,1.5226936,-0.95391184,0.2017849,0.09792603,-0.17291878,0.091340296,0.3660136,8.202684,5.158008,0,0,0,0,0,0,0,0,0,0,0,0,0,0,0,0,0,0,0,0,0
311,1.5156455,-0.9568664,0.199817,0.068106085,-0.03762647,-0.07377729,-0.49470192,9.456049,4.7677536,0,0,0,0,0,0,0,0,0,0,0,0,0,0,0,0,0,0,0,0,0
312,1.5061151,-0.9603776,0.19668098,-0.21951531,-0.281572,0.11477452,-0.1798644,8.922142,4.1787796,0,0,0,0,0,0,0,0,0,0,0,0,0,0,0,0,0,0,0,0,0
313,1.5009143,-0.9626671,0.19555677,-0.6381642,-0.009929596,0.24473678,-0.64793086,8.553435,4.582203,0,0,0,0,0,0,0,0,0,0,0,0,0,0,0,0,0,0,0,0,0
314,1.3725166,-0.8797396,0.13698773,-0.6360337,0.31604132,0.4450065,-0.20979193,8.4325285,6.7848682,0,0,0,0,0,0,0,0,0,0,0,0,0,0,0,0,0,0,0,0,0
315,1.3721726,-0.8805548,0.13389394,-0.14068574,-0.108999185,0.3672422,0.1110311,8.24578,6.271312,0,0,0,0,0,0,0,0,0,0,0,0,0,0,0,0,0,0,0,0,0
316,1.3676758,-0.8815312,0.12805544,-0.06079091,-0.40301216,0.21490937,0.9454104,8.044667,5.9325323,0,0,0,0,0,0,0,0,0,0,0,0,0,0,0,0,0,0,0,0,0
317,1.3684665,-0.8811994,0.123702995,-0.06292144,-0.15160976,0.05938077,0.58987147,7.7370124,6.568193,0,0,0,0,0,0,0,0,0,0,0,0,0,0,0,0,0,0,0,0,0
318,1.3669635,-0.8820088,0.11999765,0.08621558,0.14027269,0.005052283,0.3696049,7.9165773,5.995979,0,0,0,0,0,0,0,0,0,0,0,0,0,0,0,0,0,0,0,0,0
319,1.3710345,-0.8899487,0.14380349,0.12349983,0.04652942,0.04766286,0.15771803,7.7992616,6.7393785,0,0,0,0,0,0,0,0,0,0,0,0,0,0,0,0,0,0,0,0,0
320,1.3638949,-0.89127815,0.13754432,0.48568973,-0.17504558,-0.020514064,0.940622,7.920169,5.5075617,0,0,0,0,0,0,0,0,0,0,0,0,0,0,0,0,0,0,0,0,0
321,1.3572253,-0.8949584,0.13472389,0.2800937,0.21271066,-0.042884618,0.015263036,8.123676,4.3906665,0,0,0,0,0,0,0,0,0,0,0,0,0,0,0,0,0,0,0,0,0
322,1.352477,-0.89748186,0.13176918,0.016973391,0.17649168,0.10838293,0.06434417,8.072201,4.9449244,0,0,0,0,0,0,0,0,0,0,0,0,0,0,0,0,0,0,0,0,0
323,1.3167255,-0.90169954,0.10205512,-0.099140435,-0.019516977,0.076425,0.786196,8.214656,4.0327334,0,0,0,0,0,0,0,0,0,0,0,0,0,0,0,0,0,0,0,0,0
324,1.3190606,-0.90351796,0.10453354,-0.3814355,0.27023494,-0.05353726,-1.3685856,9.360281,5.9528832,0,0,0,0,0,0,0,0,0,0,0,0,0,0,0,0,0,0,0,0,0
325,1.3194956,-0.90365535,0.1022335,-0.14814259,-0.10580339,0.22236623,0.065541275,8.060229,6.260538,0,0,0,0,0,0,0,0,0,0,0,0,0,0,0,0,0,0,0,0,0
326,1.3087211,-0.9046521,0.094117865,0.13095668,0.39806667,0.30865264,1.712752,8.072201,5.4680576,0,0,0,0,0,0,0,0,0,0,0,0,0,0,0,0,0,0,0,0,0
327,1.3024311,-0.9069913,0.09018125,0.16717568,-0.03443068,-0.07058149,0.50846857,8.103325,4.9329534,0,0,0,0,0,0,0,0,0,0,0,0,0,0,0,0,0,0,0,0,0
328,1.3216765,-0.92952776,0.09481022,0.011638014,-0.1494835,-0.0364909,-0.23253684,8.2733135,4.750994,0,0,0,0,0,0,0,0,0,0,0,0,0,0,0,0,0,0,0,0,0
329,1.3168595,-0.9312987,0.09198636,-0.22911175,0.11896314,0.104124,0.23313539,8.151209,5.022736,0,0,0,0,0,0,0,0,0,0,0,0,0,0,0,0,0,0,0,0,0
330,1.3132541,-0.9310746,0.08708611,-0.28024444,0.28301385,0.08281872,0.9310452,8.02312,6.03668,0,0,0,0,0,0,0,0,0,0,0,0,0,0,0,0,0,0,0,0,0
331,1.3116952,-0.9305542,0.083400615,-0.045886267,0.13281158,-0.0055982308,0.62099606,8.148815,6.3694744,0,0,0,0,0,0,0,0,0,0,0,0,0,0,0,0,0,0,0,0,0
332,1.3119093,-0.94596016,0.08049994,0.14905712,-0.107938185,-0.014120346,0.8197148,8.292467,5.9995704,0,0,0,0,0,0,0,0,0,0,0,0,0,0,0,0,0,0,0,0,0
333,1.3044213,-0.9463226,0.07506696,0.13094763,-0.11539503,-0.11958153,1.0782886,8.177546,5.572205,0,0,0,0,0,0,0,0,0,0,0,0,0,0,0,0,0,0,0,0,0
334,1.2984905,-0.9475823,0.07200382,0.101120226,-0.120721355,-0.21012901,0.4019266,8.190714,5.1364603,0,0,0,0,0,0,0,0,0,0,0,0,0,0,0,0,0,0,0,0,0
335,1.2966284,-0.94803286,0.07086893,-0.019254655,0.03480725,-0.16325736,-0.085293435,8.158392,5.5889645,0,0,0,0,0,0,0,0,0,0,0,0,0,0,0,0,0,0,0,0,0
336,1.294062,-0.94872797,0.06953695,0.05318333,-0.09622028,-0.117451,-0.023044191,8.096143,5.3974285,0,0,0,0,0,0,0,0,0,0,0,0,0,0,0,0,0,0,0,0,0
337,1.3162044,-0.9551539,0.072933406,-0.05227785,-0.06319708,-0.17604055,0.3672107,8.0901575,5.294478,0,0,0,0,0,0,0,0,0,0,0,0,0,0,0,0,0,0,0,0,0
338,1.3156189,-0.95565236,0.07348599,-0.23443806,0.19353165,-0.31345966,-0.54498017,8.094946,5.4010196,0,0,0,0,0,0,0,0,0,0,0,0,0,0,0,0,0,0,0,0,0
339,1.3160411,-0.95554876,0.07400367,-0.26852652,0.40871507,-0.17497528,-0.56293666,7.942914,5.6464252,0,0,0,0,0,0,0,0,0,0,0,0,0,0,0,0,0,0,0,0,0
340,1.3174415,-0.95432353,0.07354284,-0.31859395,0.17648742,-0.20373741,-0.32231942,7.8806643,6.319196,0,0,0,0,0,0,0,0,0,0,0,0,0,0,0,0,0,0,0,0,0
341,1.3673931,-0.93299764,0.11234661,-0.01605886,-0.013129651,-0.20586795,-0.57131636,7.669975,6.256947,0,0,0,0,0,0,0,0,0,0,0,0,0,0,0,0,0,0,0,0,0
342,1.3685513,-0.9328435,0.113224834,0.114968665,-0.10048133,-0.06525304,-0.9136872,7.7956705,5.7996545,0,0,0,0,0,0,0,0,0,0,0,0,0,0,0,0,0,0,0,0,0
343,1.3674622,-0.93223363,0.11118408,0.101120226,-0.24642256,0.04553446,-0.066139825,7.4868183,5.912182,0,0,0,0,0,0,0,0,0,0,0,0,0,0,0,0,0,0,0,0,0
344,1.365747,-0.9321645,0.10959466,0.11495668,-0.22938418,-0.04714088,-0.1834557,7.7382097,5.782895,0,0,0,0,0,0,0,0,0,0,0,0,0,0,0,0,0,0,0,0,0
345,1.3641925,-0.9325128,0.10899265,9.7338535E-4,-0.11966195,-0.032227177,-0.44322658,7.7980647,5.5638256,0,0,0,0,0,0,0,0,0,0,0,0,0,0,0,0,0,0,0,0,0
346,1.3644863,-0.93140286,0.097622365,0.042518698,-0.07811664,0.097735085,-0.26126727,7.9393225,5.7649384,0,0,0,0,0,0,0,0,0,0,0,0,0,0,0,0,0,0,0,0,0
347,1.3588517,-0.932081,0.094837025,0.07660716,-0.32099694,0.06471188,0.23552959,8.172757,5.652411,0,0,0,0,0,0,0,0,0,0,0,0,0,0,0,0,0,0,0,0,0
348,1.3548796,-0.93268317,0.09313412,0.07660716,-0.14948936,-0.031161914,-0.054168813,8.020725,5.5889645,0,0,0,0,0,0,0,0,0,0,0,0,0,0,0,0,0,0,0,0,0
349,1.3541402,-0.9322346,0.09204324,0.10643456,-0.12924933,0.095604554,-0.24929625,8.316409,6.456863,0,0,0,0,0,0,0,0,0,0,0,0,0,0,0,0,0,0,0,0,0
350,1.3475183,-0.9719748,0.010262531,0.43879706,-1.0112883,-0.055662997,0.63655835,8.207473,5.673959,0,0,0,0,0,0,0,0,0,0,0,0,0,0,0,0,0,0,0,0,0
351,1.3410991,-0.9725831,0.008611784,0.31309587,-0.59370464,-0.14621048,0.38037878,8.246978,5.2537766,0,0,0,0,0,0,0,0,0,0,0,0,0,0,0,0,0,0,0,0,0
352,1.3367375,-0.97346574,0.008459185,0.31096533,-0.1899694,0.10732246,-0.005087679,8.375067,5.18195,0,0,0,0,0,0,0,0,0,0,0,0,0,0,0,0,0,0,0,0,0
353,1.3292477,-0.9734607,0.004108001,0.16608937,0.02734454,0.2138489,1.190816,8.428937,5.6117096,0,0,0,0,0,0,0,0,0,0,0,0,0,0,0,0,0,0,0,0,0
354,1.3409243,-1.0294218,0.0193769,0.43560126,0.05184562,-0.04394509,0.5360019,8.248175,6.3814454,0,0,0,0,0,0,0,0,0,0,0,0,0,0,0,0,0,0,0,0,0
355,1.3347745,-1.0292882,0.01636931,0.81696594,-0.03231027,-0.01092189,0.6688801,8.388235,5.0766053,0,0,0,0,0,0,0,0,0,0,0,0,0,0,0,0,0,0,0,0,0
356,1.3274963,-1.0302112,0.013647314,0.69552577,0.0071045146,-0.08335987,0.5551555,8.602516,4.6145244,0,0,0,0,0,0,0,0,0,0,0,0,0,0,0,0,0,0,0,0,0
357,1.3218267,-1.03256,0.0133820055,0.53999716,0.3011175,-0.05885879,-0.001496376,8.699482,3.9178119,0,0,0,0,0,0,0,0,0,0,0,0,0,0,0,0,0,0,0,0,0
358,1.3162031,-1.0333812,0.010768549,0.08193348,0.283008,0.110518254,0.5503671,8.66716,4.6707883,0,0,0,0,0,0,0,0,0,0,0,0,0,0,0,0,0,0,0,0,0
359,1.3163954,-1.034422,0.027018107,0.03825764,-0.017396567,-0.14621048,-0.1834557,8.674342,5.463269,0,0,0,0,0,0,0,0,0,0,0,0,0,0,0,0,0,0,0,0,0
360,1.3206247,-1.0315729,0.024741031,-0.038441397,-0.5319193,-0.11425254,0.5419874,7.746589,6.2258224,0,0,0,0,0,0,0,0,0,0,0,0,0,0,0,0,0,0,0,0,0
361,1.2897942,-1.0386053,0.0076931696,-2.1647224,-1.4661626,0.1659152,1.165677,8.339154,1.071106,0,0,0,0,0,0,0,0,0,0,0,0,0,0,0,0,0,0,0,0,0
362,1.2989509,-1.0343449,0.007272548,-2.1593962,-0.7215427,0.21491736,0.099060096,8.049456,7.4265146,0,0,0,0,0,0,0,0,0,0,0,0,0,0,0,0,0,0,0,0,0
363,1.2566592,-0.985457,-0.06066545,-0.35164246,-0.21234635,0.18295944,0.9334394,7.466468,5.453692,0,0,0,0,0,0,0,0,0,0,0,0,0,0,0,0,0,0,0,0,0
364,1.2568879,-0.9845716,-0.062714726,0.95650226,0.79965484,0.1392836,0.8903438,7.5251255,5.4093995,0,0,0,0,0,0,0,0,0,0,0,0,0,0,0,0,0,0,0,0,0
365,1.238447,-0.98793656,-0.07084483,0.6965777,0.7442611,0.18189417,1.4661492,7.300071,2.8918965,0,0,0,0,0,0,0,0,0,0,0,0,0,0,0,0,0,0,0,0,0
366,1.2432251,-0.9832991,-0.08050432,-0.055498946,1.3099165,-0.08229141,3.291728,5.901857,5.3232083,0,0,0,0,0,0,0,0,0,0,0,0,0,0,0,0,0,0,0,0,0
367,1.2486241,-0.9850266,-0.07206006,-0.67867863,0.096580334,-0.56272566,-1.9958664,10.873417,5.6117096,0,0,0,0,0,0,0,0,0,0,0,0,0,0,0,0,0,0,0,0,0
368,1.2902173,-0.92857814,-0.01708689,-0.11515375,0.4566397,0.37044597,-1.777994,8.816797,3.3659482,0,0,0,0,0,0,0,0,0,0,0,0,0,0,0,0,0,0,0,0,0
369,1.2862885,-0.92903227,-0.020501602,-0.44964677,0.08166663,0.78909487,1.0028713,7.5311112,5.276521,0,0,0,0,0,0,0,0,0,0,0,0,0,0,0,0,0,0,0,0,0
370,1.2906942,-0.9268794,-0.021320459,-1.6448735,-0.014207166,-0.1515336,0.3564368,6.238242,5.7936687,0,0,0,0,0,0,0,0,0,0,0,0,0,0,0,0,0,0,0,0,0
371,1.2983978,-0.9236873,-0.018419014,-1.0941317,-0.022729281,0.7092001,-1.208174,9.43929,9.712977,0,0,0,0,0,0,0,0,0,0,0,0,0,0,0,0,0,0,0,0,0
372,1.2499772,-0.9624114,-0.11172588,0.3535626,-0.30822015,0.23728792,2.743456,7.0965633,9.186253,0,0,0,0,0,0,0,0,0,0,0,0,0,0,0,0,0,0,0,0,0
373,1.2484254,-0.9598602,-0.1133621,0.94798017,-1.089059,-0.4657866,1.3224971,7.592163,6.7477584,0,0,0,0,0,0,0,0,0,0,0,0,0,0,0,0,0,0,0,0,0
374,1.2412076,-0.9615712,-0.11327033,0.46328482,-1.1156906,-0.4476771,0.49530047,7.8698907,4.535516,0,0,0,0,0,0,0,0,0,0,0,0,0,0,0,0,0,0,0,0,0
375,1.23045,-0.9621446,-0.116516896,-0.37933934,0.57914513,0.10732566,1.4122797,7.911789,4.9940057,0,0,0,0,0,0,0,0,0,0,0,0,0,0,0,0,0,0,0,0,0
376,1.2324804,-0.95991844,-0.1148616,-0.41129726,1.5432094,0.18828575,0.23074119,7.7968674,6.8339496,0,0,0,0,0,0,0,0,0,0,0,0,0,0,0,0,0,0,0,0,0
377,1.1782674,-0.9133766,0.0063060173,0.05422329,0.19245413,0.4780377,0.29538465,7.586178,7.351097,0,0,0,0,0,0,0,0,0,0,0,0,0,0,0,0,0,0,0,0,0
378,1.1767894,-0.91220856,0.0022222926,0.47606933,-0.5670786,0.13821806,1.237503,7.2378216,6.1719527,0,0,0,0,0,0,0,0,0,0,0,0,0,0,0,0,0,0,0,0,0
379,1.1680908,-0.9145775,-0.0022697016,0.5090925,-0.29437092,-0.15472966,1.0675147,8.072201,4.7210665,0,0,0,0,0,0,0,0,0,0,0,0,0,0,0,0,0,0,0,0,0
380,1.1662642,-0.91681963,-0.002419184,-0.06934605,0.09232008,-0.16325177,0.046387658,7.8686934,4.760571,0,0,0,0,0,0,0,0,0,0,0,0,0,0,0,0,0,0,0,0,0
381,1.1472461,-0.87753403,-0.00896615,-0.2472452,0.09871166,0.14141385,0.5300164,7.6663833,6.0115414,0,0,0,0,0,0,0,0,0,0,0,0,0,0,0,0,0,0,0,0,0
382,1.1466954,-0.8778475,-0.011843141,0.04676777,0.015621037,0.16165388,0.9358336,7.640047,6.0761847,0,0,0,0,0,0,0,0,0,0,0,0,0,0,0,0,0,0,0,0,0
383,1.1445898,-0.87885565,-0.014759606,0.15222895,0.12108222,0.043409526,0.9178771,7.8100357,5.7733183,0,0,0,0,0,0,0,0,0,0,0,0,0,0,0,0,0,0,0,0,0
384,1.1444625,-0.879342,-0.016958395,0.16075106,0.16475806,0.022104237,0.76464814,7.7980647,6.1001267,0,0,0,0,0,0,0,0,0,0,0,0,0,0,0,0,0,0,0,0,0
385,1.1442871,-0.8806634,-0.018197328,0.23531957,-0.06853485,-0.046072688,0.45459905,7.9872065,5.7493763,0,0,0,0,0,0,0,0,0,0,0,0,0,0,0,0,0,0,0,0,0
386,1.1472178,-0.9077624,-0.03558498,0.03718039,-0.089840144,0.012516857,0.85443074,7.9058037,5.593753,0,0,0,0,0,0,0,0,0,0,0,0,0,0,0,0,0,0,0,0,0
387,1.1468891,-0.9078194,-0.037517738,-0.113021895,0.15410541,-0.0066579026,0.8017583,7.8327804,6.028301,0,0,0,0,0,0,0,0,0,0,0,0,0,0,0,0,0,0,0,0,0
388,1.1499184,-0.90696824,-0.038209345,-0.016082829,0.017751567,-0.026897926,0.47973818,7.818415,6.642413,0,0,0,0,0,0,0,0,0,0,0,0,0,0,0,0,0,0,0,0,0
389,1.1522225,-0.9064914,-0.038841058,0.28325647,-0.17399603,-0.011984224,0.44143093,7.705888,6.314408,0,0,0,0,0,0,0,0,0,0,0,0,0,0,0,0,0,0,0,0,0
390,1.1263701,-0.95780295,-0.1079529,0.37806502,-0.38811418,0.058323227,1.142932,7.790882,5.390246,0,0,0,0,0,0,0,0,0,0,0,0,0,0,0,0,0,0,0,0,0
391,1.1203898,-0.95858204,-0.110435545,0.110683635,-0.28797933,-0.037550572,1.1848305,7.9656587,5.0131593,0,0,0,0,0,0,0,0,0,0,0,0,0,0,0,0,0,0,0,0,0
392,1.1182542,-0.9593548,-0.11066195,-0.13858823,0.07208005,-0.020506341,0.63655835,8.112902,5.202301,0,0,0,0,0,0,0,0,0,0,0,0,0,0,0,0,0,0,0,0,0
393,1.1181394,-0.9581955,-0.112084985,-0.21209149,0.23400025,0.07536746,1.1333553,7.9213657,6.16477,0,0,0,0,0,0,0,0,0,0,0,0,0,0,0,0,0,0,0,0,0
394,1.1165005,-0.9572983,-0.11413654,0.0148098385,0.041187383,-0.027963191,1.3033435,7.9249573,5.9780226,0,0,0,0,0,0,0,0,0,0,0,0,0,0,0,0,0,0,0,0,0
395,1.1369512,-0.96793395,-0.106059745,0.006290919,-0.06107667,-0.14301255,0.9944915,7.993192,5.427356,0,0,0,0,0,0,0,0,0,0,0,0,0,0,0,0,0,0,0,0,0
396,1.136743,-0.9674199,-0.10673005,0.0073561836,-0.004617655,-0.09507565,0.8065467,7.9752355,5.7409964,0,0,0,0,0,0,0,0,0,0,0,0,0,0,0,0,0,0,0,0,0
397,1.1362102,-0.9671489,-0.10729631,0.029726736,0.09977826,-0.07057457,0.75985974,7.957279,5.592556,0,0,0,0,0,0,0,0,0,0,0,0,0,0,0,0,0,0,0,0,0
398,1.1356754,-0.9667555,-0.108040676,0.02120462,0.066755064,-0.07163983,0.8149264,7.8710876,5.5997386,0,0,0,0,0,0,0,0,0,0,0,0,0,0,0,0,0,0,0,0,0
399,1.1533594,-0.9729891,-0.09049072,0.031857267,0.02307922,-0.07590089,0.5599439,7.851934,5.4453125,0,0,0,0,0,0,0,0,0,0,0,0,0,0,0,0,0,0,0,0,0
400,1.1536131,-0.9726029,-0.09027703,-0.075734444,0.028405542,-0.055660866,0.44382513,7.8459487,5.5494604,0,0,0,0,0,0,0,0,0,0,0,0,0,0,0,0,0,0,0,0,0
401,1.1531974,-0.97180563,-0.09118283,-0.11088817,-0.005682919,-0.00878923,0.786196,7.8447514,5.7637415,0,0,0,0,0,0,0,0,0,0,0,0,0,0,0,0,0,0,0,0,0
402,1.1531159,-0.97114265,-0.091653585,-0.17373876,-0.030184,-0.1025325,0.6628946,7.9070005,5.7529674,0,0,0,0,0,0,0,0,0,0,0,0,0,0,0,0,0,0,0,0,0
403,1.1550738,-0.9698402,-0.091512546,-0.1758693,0.082734026,-0.055660866,0.51924247,7.839963,6.1228714,0,0,0,0,0,0,0,0,0,0,0,0,0,0,0,0,0,0,0,0,0
404,1.1710575,-0.9464375,-0.06744097,0.016943563,0.03692766,-0.016246082,0.6976105,7.7741227,6.5610104,0,0,0,0,0,0,0,0,0,0,0,0,0,0,0,0,0,0,0,0,0
405,1.1713079,-0.94560146,-0.06880659,0.25023648,-0.12392727,-0.06311771,0.83647424,7.8651023,6.1252656,0,0,0,0,0,0,0,0,0,0,0,0,0,0,0,0,0,0,0,0,0
406,1.169482,-0.9460683,-0.069783404,0.28965124,-0.11966621,-0.13449043,0.643741,7.9848123,5.4465094,0,0,0,0,0,0,0,0,0,0,0,0,0,0,0,0,0,0,0,0,0
407,1.1686635,-0.94679964,-0.06964533,0.11068683,-0.020596622,-0.082292475,0.33848026,8.076989,5.3758807,0,0,0,0,0,0,0,0,0,0,0,0,0,0,0,0,0,0,0,0,0
408,1.1770926,-0.9513354,-0.059878845,0.041444644,0.020948691,-0.019441875,0.42467153,7.8974237,5.8930283,0,0,0,0,0,0,0,0,0,0,0,0,0,0,0,0,0,0,0,0,0
409,1.1757042,-0.95143205,-0.06097966,0.1447753,-0.09942619,-0.014115552,0.63655835,7.8651023,5.5147443,0,0,0,0,0,0,0,0,0,0,0,0,0,0,0,0,0,0,0,0,0
410,1.174089,-0.9522214,-0.061466753,0.051032025,0.015622369,-0.013050288,0.44143093,7.9070005,5.1604023,0,0,0,0,0,0,0,0,0,0,0,0,0,0,0,0,0,0,0,0,0
411,1.1737229,-0.9521267,-0.062242407,-0.08214254,0.061421018,0.045542985,0.5695207,7.9153805,5.661988,0,0,0,0,0,0,0,0,0,0,0,0,0,0,0,0,0,0,0,0,0
412,1.1732757,-0.951794,-0.06369991,-0.04379302,0.04757258,0.022107167,0.7921815,7.976433,5.8271875,0,0,0,0,0,0,0,0,0,0,0,0,0,0,0,0,0,0,0,0,0
413,1.1700956,-0.94677854,-0.061991815,0.027579697,0.008157795,0.016780844,0.63536125,8.024317,5.8331733,0,0,0,0,0,0,0,0,0,0,0,0,0,0,0,0,0,0,0,0,0
414,1.1682707,-0.94704413,-0.06378122,0.10321347,-0.09410759,0.03808613,0.85323364,8.078186,5.590162,0,0,0,0,0,0,0,0,0,0,0,0,0,0,0,0,0,0,0,0,0
415,1.1649431,-0.94785327,-0.06586491,0.02864496,0.049703106,8.018778E-4,0.8963293,8.124873,5.286098,0,0,0,0,0,0,0,0,0,0,0,0,0,0,0,0,0,0,0,0,0
416,1.164497,-0.94785655,-0.0670021,-0.056576192,0.10403159,-0.042873964,0.71077865,8.085369,5.762544,0,0,0,0,0,0,0,0,0,0,0,0,0,0,0,0,0,0,0,0,0
417,1.174887,-0.95384467,-0.054347884,0.10108294,0.0070925304,-0.06844031,0.7897873,8.011148,5.6224833,0,0,0,0,0,0,0,0,0,0,0,0,0,0,0,0,0,0,0,0,0
418,1.1735471,-0.9546023,-0.05515894,0.03823234,0.049703106,-0.08441927,0.50487727,8.148815,5.3040547,0,0,0,0,0,0,0,0,0,0,0,0,0,0,0,0,0,0,0,0,0
419,1.1738306,-0.9546816,-0.055684257,-0.035270907,0.048637845,-0.042873964,0.45579615,7.980024,5.5853734,0,0,0,0,0,0,0,0,0,0,0,0,0,0,0,0,0,0,0,0,0
420,1.1743208,-0.95467794,-0.056155056,-0.0033129724,0.05076837,-0.03222132,0.44741645,7.981221,5.6356516,0,0,0,0,0,0,0,0,0,0,0,0,0,0,0,0,0,0,0,0,0
421,1.1756766,-0.9543807,-0.056269586,0.009470201,0.016679911,-0.03009079,0.358831,7.9417167,5.7912745,0,0,0,0,0,0,0,0,0,0,0,0,0,0,0,0,0,0,0,0,0
422,1.1808048,-0.9576469,-0.051238637,0.11173558,-0.049366485,0.022107167,0.37559038,8.048259,5.500379,0,0,0,0,0,0,0,0,0,0,0,0,0,0,0,0,0,0,0,0,0
423,1.1766249,-0.9582904,-0.053921856,0.06912501,-0.116478145,0.02317243,0.9813234,8.108113,5.2322288,0,0,0,0,0,0,0,0,0,0,0,0,0,0,0,0,0,0,0,0,0
424,1.1739223,-0.9588513,-0.05571563,-0.028879318,0.00922306,-0.08015822,0.7706337,8.139238,5.3291936,0,0,0,0,0,0,0,0,0,0,0,0,0,0,0,0,0,0,0,0,0
425,1.1743838,-0.9587838,-0.056069527,-0.075750954,0.046507314,-0.06844031,0.41868603,8.075792,5.6931124,0,0,0,0,0,0,0,0,0,0,0,0,0,0,0,0,0,0,0,0,0
426,1.1851326,-0.9537966,-0.04695158,-0.022487732,0.020940969,-0.03754764,0.43185413,8.055441,5.6835356,0,0,0,0,0,0,0,0,0,0,0,0,0,0,0,0,0,0,0,0,0
427,1.1861534,-0.9537475,-0.047260214,0.037167076,0.030528348,0.0061282,0.3576339,8.044667,5.7254343,0,0,0,0,0,0,0,0,0,0,0,0,0,0,0,0,0,0,0,0,0
428,1.184396,-0.95431155,-0.04876401,0.0925547,-0.025933595,0.0050645336,0.6545149,8.02312,5.31842,0,0,0,0,0,0,0,0,0,0,0,0,0,0,0,0,0,0,0,0,0
429,1.1836472,-0.95507395,-0.0492122,-0.06403917,0.06780967,-0.020501813,0.37319618,8.038682,5.234623,0,0,0,0,0,0,0,0,0,0,0,0,0,0,0,0,0,0,0,0,0
430,1.1818696,-0.9341955,-0.021120165,-0.15778244,0.23292565,0.014651913,0.5288193,8.003966,5.6811414,0,0,0,0,0,0,0,0,0,0,0,0,0,0,0,0,0,0,0,0,0
431,1.1837505,-0.9339564,-0.02226382,-0.09386657,0.20096773,-0.0013270532,0.47375265,7.990798,6.0378776,0,0,0,0,0,0,0,0,0,0,0,0,0,0,0,0,0,0,0,0,0
432,1.1851808,-0.933939,-0.023355832,0.07551047,-0.055761002,-0.033284985,0.45699325,8.031499,5.9337296,0,0,0,0,0,0,0,0,0,0,0,0,0,0,0,0,0,0,0,0,0
433,1.183913,-0.9349249,-0.024836015,0.13410002,-0.049369413,-0.018371284,0.5240309,8.093748,5.3651066,0,0,0,0,0,0,0,0,0,0,0,0,0,0,0,0,0,0,0,0,0
434,1.1814253,-0.93621594,-0.026736034,0.024377778,0.032655947,-0.038611308,0.61979896,8.065018,5.1472344,0,0,0,0,0,0,0,0,0,0,0,0,0,0,0,0,0,0,0,0,0
435,1.1928734,-0.9317317,-0.009604141,-0.0959971,0.0848539,-0.081221886,0.51924247,8.087763,5.403414,0,0,0,0,0,0,0,0,0,0,0,0,0,0,0,0,0,0,0,0,0
436,1.1925855,-0.93213195,-0.011456965,-0.09280131,0.11148552,-0.094005056,0.58388597,8.029105,5.690718,0,0,0,0,0,0,0,0,0,0,0,0,0,0,0,0,0,0,0,0,0
437,1.1937792,-0.9325321,-0.012077733,-0.04060335,0.088049695,-0.12063667,0.2439093,8.065018,5.736208,0,0,0,0,0,0,0,0,0,0,0,0,0,0,0,0,0,0,0,0,0
438,1.1958425,-0.9326129,-0.012042525,-0.0054496266,0.00922013,-0.09826612,0.06075287,8.005163,5.88824,0,0,0,0,0,0,0,0,0,0,0,0,0,0,0,0,0,0,0,0,0
439,1.2081681,-0.93825656,0.004532251,0.038226213,0.058222294,-0.052459747,0.18046296,7.9153805,5.51235,0,0,0,0,0,0,0,0,0,0,0,0,0,0,0,0,0,0,0,0,0
440,1.2105793,-0.93825936,0.0046488685,-0.031015974,0.13705187,-0.04393763,-0.06015432,7.9213657,5.804443,0,0,0,0,0,0,0,0,0,0,0,0,0,0,0,0,0,0,0,0,0
441,1.2124903,-0.93839914,0.004594661,0.026508307,0.077397056,0.035957202,-0.011073183,7.908198,5.712266,0,0,0,0,0,0,0,0,0,0,0,0,0,0,0,0,0,0,0,0,0
442,1.2127203,-0.93886,0.0036850378,-0.0054496266,0.08378864,0.04767511,0.22834699,8.003966,5.581782,0,0,0,0,0,0,0,0,0,0,0,0,0,0,0,0,0,0,0,0,0
443,1.211642,-0.93945676,0.0023962003,0.0041377535,0.12320343,0.025304558,0.33488896,8.025514,5.5051675,0,0,0,0,0,0,0,0,0,0,0,0,0,0,0,0,0,0,0,0,0
444,1.2091031,-0.93769205,0.019690419,-0.04699494,0.16900979,-0.01730602,0.41509473,8.124873,5.458481,0,0,0,0,0,0,0,0,0,0,0,0,0,0,0,0,0,0,0,0,0
445,1.2092667,-0.9378261,0.018212356,-0.0661681,0.22333908,-0.017306551,0.31693244,8.082974,5.840356,0,0,0,0,0,0,0,0,0,0,0,0,0,0,0,0,0,0,0,0,0
446,1.2100046,-0.9382263,0.01767667,0.014791995,0.1956422,-0.039677106,0.04878186,8.091354,5.690718,0,0,0,0,0,0,0,0,0,0,0,0,0,0,0,0,0,0,0,0,0
447,1.2094475,-0.9385751,0.016057855,-0.004382764,0.12853055,-0.014110759,0.358831,8.032697,5.664382,0,0,0,0,0,0,0,0,0,0,0,0,0,0,0,0,0,0,0,0,0
448,1.229585,-0.93848926,0.04742617,-1.21706464E-4,0.124269485,-0.08761401,0.1062427,8.027908,5.694309,0,0,0,0,0,0,0,0,0,0,0,0,0,0,0,0,0,0,0,0,0
449,1.2310964,-0.9387532,0.047122587,0.02544464,0.12000843,-0.05565607,-0.1846528,8.037485,5.724237,0,0,0,0,0,0,0,0,0,0,0,0,0,0,0,0,0,0,0,0,0
450,1.232057,-0.9391854,0.046655092,0.053141516,0.06887574,0.0039987364,-0.13317747,8.017134,5.606921,0,0,0,0,0,0,0,0,0,0,0,0,0,0,0,0,0,0,0,0,0
451,1.2311469,-0.9398846,0.04522595,0.03716255,0.028395688,0.0061292653,0.13377602,7.9417167,5.39264,0,0,0,0,0,0,0,0,0,0,0,0,0,0,0,0,0,0,0,0,0
452,1.231394,-0.9407655,0.045059506,-0.023557523,0.046505183,-0.05246028,-0.19662382,8.013543,5.3256025,0,0,0,0,0,0,0,0,0,0,0,0,0,0,0,0,0,0,0,0,0
453,1.2380075,-0.9326276,0.060259692,-0.07362495,0.07313679,0.005064001,-0.26126727,7.9979806,5.720646,0,0,0,0,0,0,0,0,0,0,0,0,0,0,0,0,0,0,0,0,0
454,1.2395374,-0.93265295,0.059457675,0.016922524,-0.03871597,0.03169561,-0.11881226,7.968053,5.8930283,0,0,0,0,0,0,0,0,0,0,0,0,0,0,0,0,0,0,0,0,0
455,1.2389747,-0.9333279,0.05832595,0.08616471,-0.05256441,0.040217727,-0.015861586,7.9991775,5.524321,0,0,0,0,0,0,0,0,0,0,0,0,0,0,0,0,0,0,0,0,0
456,1.2378007,-0.9339939,0.05686405,-0.009709086,0.020938838,0.021042967,0.082300685,8.073398,5.572205,0,0,0,0,0,0,0,0,0,0,0,0,0,0,0,0,0,0,0,0,0
457,1.2358937,-0.928704,0.06098942,-0.040601756,0.05289677,0.002933472,0.030825347,8.079383,5.711069,0,0,0,0,0,0,0,0,0,0,0,0,0,0,0,0,0,0,0,0,0
458,1.2363435,-0.9291169,0.060162067,-0.031014375,0.046505183,0.0039987364,-0.11282676,8.030302,5.7493763,0,0,0,0,0,0,0,0,0,0,0,0,0,0,0,0,0,0,0,0,0
459,1.2364587,-0.92970765,0.05939242,-0.008643822,0.022004101,0.010390323,-0.12240356,8.0422735,5.6452284,0,0,0,0,0,0,0,0,0,0,0,0,0,0,0,0,0,0,0,0,0
460,1.2356733,-0.9304236,0.05813667,-0.0022522353,0.028395688,0.026369289,0.018854339,8.025514,5.5530515,0,0,0,0,0,0,0,0,0,0,0,0,0,0,0,0,0,0,0,0,0
461,1.2356917,-0.93082815,0.05705062,0.015843678,0.0049532135,0.00826299,-0.02184709,7.978827,5.697901,0,0,0,0,0,0,0,0,0,0,0,0,0,0,0,0,0,0,0,0,0
462,1.233372,-0.93793476,0.052639488,0.037148967,-0.042983685,0.011458783,0.066738375,8.0422735,5.342362,0,0,0,0,0,0,0,0,0,0,0,0,0,0,0,0,0,0,0,0,0
463,1.2328941,-0.93845373,0.051661137,-0.06618168,0.05182485,0.0050671967,-0.02064999,7.990798,5.548263,0,0,0,0,0,0,0,0,0,0,0,0,0,0,0,0,0,0,0,0,0
464,1.2330167,-0.93880635,0.050925765,-0.05872483,0.041172203,0.01571984,-0.084096335,7.9991775,5.6464252,0,0,0,0,0,0,0,0,0,0,0,0,0,0,0,0,0,0,0,0,0
465,1.2340508,-0.93857527,0.04996835,-0.054463774,0.03051956,0.021046164,-0.018255789,7.966856,5.9756284,0,0,0,0,0,0,0,0,0,0,0,0,0,0,0,0,0,0,0,0,0
466,1.232348,-0.94311804,0.042536568,0.046736345,-0.049375273,0.010393519,-0.0338181,8.005163,5.7673326,0,0,0,0,0,0,0,0,0,0,0,0,0,0,0,0,0,0,0,0,0
467,1.2315835,-0.9436592,0.04171729,0.016908942,-0.0014383734,0.013589312,-0.008678981,8.055441,5.518336,0,0,0,0,0,0,0,0,0,0,0,0,0,0,0,0,0,0,0,0,0
468,1.2319534,-0.9438064,0.041193604,-0.016114255,0.020932179,0.019980898,-0.08888474,8.019528,5.721843,0,0,0,0,0,0,0,0,0,0,0,0,0,0,0,0,0,0,0,0,0
469,1.2316562,-0.94397724,0.040189806,0.02117,-0.018482605,0.0348946,0.05117606,7.994389,5.688324,0,0,0,0,0,0,0,0,0,0,0,0,0,0,0,0,0,0,0,0,0
470,1.2305254,-0.9445906,0.039260294,0.017974207,-0.015286811,0.0050671967,0.03441665,8.069806,5.47524,0,0,0,0,0,0,0,0,0,0,0,0,0,0,0,0,0,0,0,0,0
471,1.2293255,-0.94471586,0.035697263,-0.033158485,0.010279535,0.0018714033,-0.045789108,8.041076,5.6595936,0,0,0,0,0,0,0,0,0,0,0,0,0,0,0,0,0,0,0,0,0
472,1.2282842,-0.945165,0.03465861,-0.003331082,-0.009960488,0.031698808,0.08948329,7.994389,5.511153,0,0,0,0,0,0,0,0,0,0,0,0,0,0,0,0,0,0,0,0,0
473,1.228072,-0.9452963,0.03377426,-0.04594166,-0.0067646955,0.0018714033,0.054767363,8.041076,5.7290254,0,0,0,0,0,0,0,0,0,0,0,0,0,0,0,0,0,0,0,0,0
474,1.2278376,-0.9453781,0.033091508,-0.001200553,-0.02487419,0.004001932,0.0020949265,8.049456,5.7637415,0,0,0,0,0,0,0,0,0,0,0,0,0,0,0,0,0,0,0,0,0
475,1.2215569,-0.94681585,0.02637749,0.0051910337,-0.0046341666,0.023176692,0.17447744,8.03509,5.650017,0,0,0,0,0,0,0,0,0,0,0,0,0,0,0,0,0,0,0,0,0
476,1.2208794,-0.9470126,0.025627552,0.0041257693,0.008149006,-0.013042299,0.06314707,8.054244,5.678747,0,0,0,0,0,0,0,0,0,0,0,0,0,0,0,0,0,0,0,0,0
477,1.220582,-0.94716096,0.025107639,-0.003331082,6.9215556E-4,-0.009846506,0.0020949265,8.032697,5.690718,0,0,0,0,0,0,0,0,0,0,0,0,0,0,0,0,0,0,0,0,0
478,1.2206928,-0.9470247,0.024454154,0.007330617,0.0070882696,-0.007718107,0.043993454,7.966856,5.8140197,0,0,0,0,0,0,0,0,0,0,0,0,0,0,0,0,0,0,0,0,0
479,1.220087,-0.94704515,0.023508947,0.06698543,-0.05789286,-0.040741306,0.12898761,7.8770733,5.654805,0,0,0,0,0,0,0,0,0,0,0,0,0,0,0,0,0,0,0,0,0
480,1.2329088,-0.9562495,0.027351266,0.052071724,-0.0035643748,-0.02263181,-0.24211365,7.991995,5.6571994,0,0,0,0,0,0,0,0,0,0,0,0,0,0,0,0,0,0,0,0,0
481,1.2313638,-0.95655125,0.026547521,0.07124648,-0.022739135,0.035957735,0.07032967,8.018332,5.4788313,0,0,0,0,0,0,0,0,0,0,0,0,0,0,0,0,0,0,0,0,0
482,1.2294207,-0.95706093,0.025755808,-0.015039936,0.032654617,0.013587181,0.07032967,8.078186,5.393837,0,0,0,0,0,0,0,0,0,0,0,0,0,0,0,0,0,0,0,0,0
483,1.228899,-0.9569956,0.025170792,-0.060846306,-0.014217019,0.0061303303,0.020051438,8.087763,5.7374053,0,0,0,0,0,0,0,0,0,0,0,0,0,0,0,0,0,0,0,0,0
484,1.2253274,-0.9542832,0.023591975,-0.0011914982,0.006023005,0.0061303303,0.097862996,8.055441,5.7182517,0,0,0,0,0,0,0,0,0,0,0,0,0,0,0,0,0,0,0,0,0
485,1.2243888,-0.95455956,0.0231126,0.0020042951,-0.011021226,-0.016240222,0.0020949265,8.080581,5.560234,0,0,0,0,0,0,0,0,0,0,0,0,0,0,0,0,0,0,0,0,0
486,1.223927,-0.9544835,0.022450471,-0.021431522,0.006023005,-0.0013265206,0.057161566,8.011148,5.7194486,0,0,0,0,0,0,0,0,0,0,0,0,0,0,0,0,0,0,0,0,0
487,1.2235821,-0.9545046,0.022040635,0.017983261,-0.008890697,0.0018692728,-0.011073183,7.9991775,5.653608,0,0,0,0,0,0,0,0,0,0,0,0,0,0,0,0,0,0,0,0,0
488,1.2225248,-0.9547168,0.021381589,0.0020042951,-0.001433846,0.011456653,0.06075287,8.039879,5.5674167,0,0,0,0,0,0,0,0,0,0,0,0,0,0,0,0,0,0,0,0,0
489,1.2193441,-0.9549794,0.018589556,-0.016105201,0.020936707,-0.0055875783,0.045190558,8.055441,5.5506573,0,0,0,0,0,0,0,0,0,0,0,0,0,0,0,0,0,0,0,0,0
490,1.219324,-0.954828,0.018177263,-0.040606283,0.04330726,0.0071955947,0.011671733,8.015937,5.7637415,0,0,0,0,0,0,0,0,0,0,0,0,0,0,0,0,0,0,0,0,0
491,1.2191532,-0.95473397,0.017542915,0.02970117,-0.030195985,-0.004522314,0.07751228,8.007557,5.724237,0,0,0,0,0,0,0,0,0,0,0,0,0,0,0,0,0,0,0,0,0
492,1.2182765,-0.95524645,0.017332166,0.019048525,0.0102840625,-0.024762338,-0.037409402,7.968053,5.3399677,0,0,0,0,0,0,0,0,0,0,0,0,0,0,0,0,0,0,0,0,0
493,1.222511,-0.9508623,0.03174552,-0.026757844,0.113614716,-0.009848636,-0.05057751,7.970447,5.7888803,0,0,0,0,0,0,0,0,0,0,0,0,0,0,0,0,0,0,0,0,0
494,1.2230886,-0.9508208,0.031157525,0.0030695593,-0.001433846,-0.0013265206,-0.0134673845,8.007557,5.7409964,0,0,0,0,0,0,0,0,0,0,0,0,0,0,0,0,0,0,0,0,0
495,1.2223047,-0.9513867,0.030500256,0.023303725,-0.01208942,8.053399E-4,0.009277532,8.092551,5.43813,0,0,0,0,0,0,0,0,0,0,0,0,0,0,0,0,0,0,0,0,0
496,1.2224623,-0.95142746,0.02975197,-0.043807935,0.051826447,0.012523249,0.039205052,7.9872065,5.6703672,0,0,0,0,0,0,0,0,0,0,0,0,0,0,0,0,0,0,0,0,0
497,1.2229099,-0.9514962,0.029304892,-0.03528582,0.024129571,0.0029358687,-0.042197805,8.059032,5.7038865,0,0,0,0,0,0,0,0,0,0,0,0,0,0,0,0,0,0,0,0,0
498,1.2231679,-0.9476115,0.030682808,-0.025698438,0.004954811,-0.0055862465,-0.032621,8.047062,5.700295,0,0,0,0,0,0,0,0,0,0,0,0,0,0,0,0,0,0,0,0,0
499,1.2233398,-0.9477142,0.030137632,-0.0065236795,0.013476927,0.016784307,-0.019452889,7.990798,5.6811414,0,0,0,0,0,0,0,0,0,0,0,0,0,0,0,0,0,0,0,0,0
500,1.222711,-0.9479206,0.029421791,9.3317166E-4,-0.008893627,0.0050663976,0.032022446,8.055441,5.6631846,0,0,0,0,0,0,0,0,0,0,0,0,0,0,0,0,0,0,0,0,0
501,1.2226475,-0.9480346,0.029015582,0.0051942295,-0.025937857,8.053399E-4,-0.051774614,8.007557,5.682338,0,0,0,0,0,0,0,0,0,0,0,0,0,0,0,0,0,0,0,0,0
502,1.2200906,-0.9503554,0.023325559,0.013716345,-0.025937857,0.016784307,8.9782564E-4,8.015937,5.642834,0,0,0,0,0,0,0,0,0,0,0,0,0,0,0,0,0,0,0,0,0
503,1.2188697,-0.95061505,0.022409335,-0.0065236795,-0.016350478,0.0018706043,0.12539631,8.02312,5.5757966,0,0,0,0,0,0,0,0,0,0,0,0,0,0,0,0,0,0,0,0,0
504,1.217906,-0.95088935,0.02171842,-0.06298269,0.06780541,-0.006651511,0.067935474,8.069806,5.5973444,0,0,0,0,0,0,0,0,0,0,0,0,0,0,0,0,0,0,0,0,0
505,1.2188822,-0.95045596,0.021412311,-0.066178486,0.049695916,-0.0023904534,-0.038606502,8.059032,6.019921,0,0,0,0,0,0,0,0,0,0,0,0,0,0,0,0,0,0,0,0,0
506,1.2179272,-0.95059407,0.020531023,0.04567428,-0.009958891,-0.0034557178,0.12779051,8.013543,5.64044,0,0,0,0,0,0,0,0,0,0,0,0,0,0,0,0,0,0,0,0,0
507,1.220557,-0.9568218,0.02180002,0.024368988,-0.009958891,8.053399E-4,-0.038606502,8.013543,5.7421937,0,0,0,0,0,0,0,0,0,0,0,0,0,0,0,0,0,0,0,0,0
508,1.2211293,-0.9565172,0.021628693,0.10959014,-0.071744226,-0.004520982,-0.07691373,7.9848123,5.8116255,0,0,0,0,0,0,0,0,0,0,0,0,0,0,0,0,0,0,0,0,0
509,1.2189124,-0.9570583,0.02062722,0.08828486,-0.06322211,-0.0023904534,0.15173253,8.015937,5.332785,0,0,0,0,0,0,0,0,0,0,0,0,0,0,0,0,0,0,0,0,0
510,1.2190474,-0.95681965,0.020215705,-0.0011973572,0.024129571,-0.046066295,-2.992752E-4,8.025514,5.798457,0,0,0,0,0,0,0,0,0,0,0,0,0,0,0,0,0,0,0,0,0
511,1.2290906,-0.96251196,0.027729481,0.080820546,-0.031267643,-0.025824407,-0.11881226,8.027908,5.596147,0,0,0,0,0,0,0,0,0,0,0,0,0,0,0,0,0,0,0,0,0
512,1.2274877,-0.96296304,0.027225468,0.02862259,-0.007831824,0.00932932,-0.0134673845,8.027908,5.3256025,0,0,0,0,0,0,0,0,0,0,0,0,0,0,0,0,0,0,0,0,0
513,1.2253993,-0.9633788,0.026304493,-0.07470806,0.051822983,-0.006649647,0.0966659,7.9728413,5.360318,0,0,0,0,0,0,0,0,0,0,0,0,0,0,0,0,0,0,0,0,0
514,1.2256254,-0.9632454,0.02634064,-0.099209145,0.061410364,-0.03647705,-0.15951368,8.049456,5.6727614,0,0,0,0,0,0,0,0,0,0,0,0,0,0,0,0,0,0,0,0,0
515,1.225737,-0.962089,0.020743534,-0.003335343,-0.034463435,0.002937733,-0.009876082,7.946505,5.9648542,0,0,0,0,0,0,0,0,0,0,0,0,0,0,0,0,0,0,0,0,0
516,1.2227173,-0.96261376,0.019385934,0.01903521,-0.03339817,-0.08441395,0.2463035,7.935731,5.2214546,0,0,0,0,0,0,0,0,0,0,0,0,0,0,0,0,0,0,0,0,0
517,1.224625,-0.963044,0.021427708,-0.29628307,0.1892421,-0.042868637,-0.28880057,8.3690815,5.250185,0,0,0,0,0,0,0,0,0,0,0,0,0,0,0,0,0,0,0,0,0
518,1.2292789,-0.96100515,0.021980263,-0.29628307,0.09656409,0.06259254,-0.3199252,7.8052473,6.8076134,0,0,0,0,0,0,0,0,0,0,0,0,0,0,0,0,0,0,0,0,0
519,1.2300878,-0.96008,0.021199208,0.079755284,-0.13246776,0.04128725,0.1038485,7.902212,6.08217,0,0,0,0,0,0,0,0,0,0,0,0,0,0,0,0,0,0,0,0,0
520,1.2332503,-0.9763269,-0.0045930073,0.10851742,-0.19212256,0.004002997,-0.084096335,7.9656587,5.642834,0,0,0,0,0,0,0,0,0,0,0,0,0,0,0,0,0,0,0,0,0
521,1.2331734,-0.97582006,-0.0042459588,0.035014175,-0.06216031,0.0817673,-0.07212532,7.9213657,5.652411,0,0,0,0,0,0,0,0,0,0,0,0,0,0,0,0,0,0,0,0,0
522,1.2335867,-0.9748366,-0.004336191,-0.041684862,-0.18360046,0.06898413,0.053570263,8.145224,6.116886,0,0,0,0,0,0,0,0,0,0,0,0,0,0,0,0,0,0,0,0,0
523,1.2342215,-0.97333306,-0.0052244193,0.123431124,-0.40624073,-0.014106498,0.30735564,7.94052,6.222231,0,0,0,0,0,0,0,0,0,0,0,0,0,0,0,0,0,0,0,0,0
524,1.2460201,-1.0014422,-0.040338796,0.20971754,-0.35510802,-0.0620434,-0.027832596,8.379855,5.4931965,0,0,0,0,0,0,0,0,0,0,0,0,0,0,0,0,0,0,0,0,0
525,1.2446276,-1.0000937,-0.040657032,0.0073173014,-0.14525093,-0.017302291,0.33129767,7.968053,5.8834515,0,0,0,0,0,0,0,0,0,0,0,0,0,0,0,0,0,0,0,0,0
526,1.2447048,-0.9980387,-0.04117217,0.035014175,-0.1974489,-0.047129694,0.42826283,8.087763,6.438906,0,0,0,0,0,0,0,0,0,0,0,0,0,0,0,0,0,0,0,0,0
527,1.2462995,-0.99646324,-0.03957918,0.19693437,-0.63527256,-0.1398077,-0.24211365,8.252963,6.2892685,0,0,0,0,0,0,0,0,0,0,0,0,0,0,0,0,0,0,0,0,0
528,1.2472534,-0.99507487,-0.0386864,0.23420212,-0.95592517,-0.1302166,0.09068039,7.567024,5.518336,0,0,0,0,0,0,0,0,0,0,0,0,0,0,0,0,0,0,0,0,0
529,1.2290932,-1.030601,-0.14112115,0.16922098,-0.2358064,0.08922788,1.178845,7.9213657,4.445733,0,0,0,0,0,0,0,0,0,0,0,0,0,0,0,0,0,0,0,0,0
530,1.2241518,-1.0302272,-0.14063388,-0.36873755,0.2701942,0.009333048,0.30974984,8.261343,5.330391,0,0,0,0,0,0,0,0,0,0,0,0,0,0,0,0,0,0,0,0,0
531,1.2257439,-1.0277278,-0.13896583,-0.17912048,-0.008905078,0.009333048,0.34805706,7.7513776,6.0749874,0,0,0,0,0,0,0,0,0,0,0,0,0,0,0,0,0,0,0,0,0
532,1.2234013,-1.0257258,-0.13944294,0.42808023,-0.56071204,-0.15365241,0.94900167,7.8112326,5.7769094,0,0,0,0,0,0,0,0,0,0,0,0,0,0,0,0,0,0,0,0,0
533,1.2135745,-1.0278039,-0.14033674,0.5495204,-0.018492458,-0.22076407,0.72274965,8.359505,3.8807018,0,0,0,0,0,0,0,0,0,0,0,0,0,0,0,0,0,0,0,0,0
534,1.2482299,-1.1051992,-0.10538997,-0.3644765,0.26380262,-0.10784604,0.31094694,8.535479,3.9956234,0,0,0,0,0,0,0,0,0,0,0,0,0,0,0,0,0,0,0,0,0
535,1.2498295,-1.1008323,-0.10551415,-0.64251053,-0.20171794,-0.08121443,0.71915835,7.9213657,6.4173584,0,0,0,0,0,0,0,0,0,0,0,0,0,0,0,0,0,0,0,0,0
536,1.259759,-1.0934694,-0.1056773,-0.29843011,-0.7567207,-0.32302946,0.8855553,7.0247374,7.756914,0,0,0,0,0,0,0,0,0,0,0,0,0,0,0,0,0,0,0,0,0
537,1.262406,-1.0925267,-0.09958288,-0.88965183,-0.9665778,-0.2676357,-0.887351,7.7573633,4.3990464,1,0,0,0,0,0,0,0,0,0,0,0,0,0,0,0,0,0,0,0,0
538,1.3151655,-0.9754023,-0.108266816,-0.76395065,0.37778592,0.50042,-2.760814,7.315633,5.487211,1,0,0,0,0,0,0,0,0,0,0,0,0,0,0,0,0,0,0,0,0
539,1.332522,-0.9682475,-0.08857504,-0.37299863,-0.3977266,2.6778204,-6.106711,5.645677,5.086182,1,0,0,0,0,0,0,0,0,0,0,0,0,0,0,0,0,0,0,0,0
540,1.3501006,-0.96162736,-0.06643924,0.042454515,0.19882149,4.780652,-4.4164042,3.907487,3.1313167,1,0,0,0,0,0,0,0,0,0,0,0,0,0,0,0,0,0,0,0,0
541,1.3692268,-0.94860804,-0.039036594,0.32688013,0.95728976,6.100515,-4.1111436,1.3684359,1.1249756,1,0,0,0,0,0,0,0,0,0,0,0,0,0,0,0,0,0,0,0,0
542,0.46172205,-0.43465614,-0.6773087,-1.5820737,-0.3433981,6.355113,-1.0226234,-0.93358904,2.1461027,1,0,0,0,0,0,0,0,0,0,0,0,0,0,0,0,0,0,0,0,0
543,0.51442647,-0.4248033,-0.68124354,-2.436416,-0.7045227,7.1455393,7.58932,-0.5744588,6.350321,1,0,0,0,0,0,0,0,0,0,0,0,0,0,0,0,0,0,0,0,0
544,0.5095081,-0.4206936,-0.6837584,-0.95569825,0.75382423,4.4919653,13.338996,4.1169796,12.775161,1,0,0,0,0,0,0,0,0,0,0,0,0,0,0,0,0,0,0,0,0
545,0.49890283,-0.41659772,-0.68766904,1.1503325,0.014532071,3.1081867,7.6779056,2.186056,6.356306,1,0,0,0,0,0,0,0,0,0,0,0,0,0,0,0,0,0,0,0,0
546,0.48535517,-0.409252,-0.692034,0.21076922,-0.005707953,3.4746377,13.403639,0.8405144,10.507852,1,0,0,0,0,0,0,0,0,0,0,0,0,0,0,0,0,0,0,0,0
547,0.12736063,-0.19796015,-0.7832512,1.0427407,0.09549217,1.4772669,16.286259,1.7275661,9.25329,1,0,0,0,0,0,0,0,0,0,0,0,0,0,0,0,0,0,0,0,0
548,0.11281505,-0.1960583,-0.78922504,0.3705589,-0.14419232,-0.004515922,14.416387,1.6856676,7.668329,1,0,0,0,0,0,0,0,0,0,0,0,0,0,0,0,0,0,0,0,0
549,0.10065558,-0.19374892,-0.7935002,-0.3389072,-0.34659258,-0.84927064,13.884873,1.3301287,8.85705,1,0,0,0,0,0,0,0,0,0,0,0,0,0,0,0,0,0,0,0,0
550,0.08944982,-0.19097832,-0.7968757,-0.05767741,-0.38494208,-1.946493,13.898042,0.9362825,9.34427,1,0,0,0,0,0,0,0,0,0,0,0,0,0,0,0,0,0,0,0,0
551,0.43617132,-0.5198056,-0.7325218,-1.5313177E-4,-0.46590218,-3.6093707,13.350966,0.8129811,7.5103116,1,0,0,0,0,0,0,0,0,0,0,0,0,0,0,0,0,0,0,0,0
552,0.41550875,-0.5104759,-0.736068,0.09252487,0.3074798,-5.5705223,9.599253,0.6489783,7.464822,1,0,0,0,0,0,0,0,0,0,0,0,0,0,0,0,0,0,0,0,0
553,0.4384437,-0.5020648,-0.7354618,0.24592295,0.1903007,-6.1809187,7.6048822,1.0571897,8.924088,1,0,0,0,0,0,0,0,0,0,0,0,0,0,0,0,0,0,0,0,0
554,0.46516505,-0.4968251,-0.732997,1.6073309,1.1362555,-6.1947675,3.7717655,1.6066589,5.3710923,1,0,0,0,0,0,0,0,0,0,0,0,0,0,0,0,0,0,0,0,0
555,0.49169838,-0.49524167,-0.71658075,1.9343671,1.4654223,-5.618459,-0.47794253,2.4182932,5.428553,1,0,0,0,0,0,0,0,0,0,0,0,0,0,0,0,0,0,0,0,0
556,1.2567759,-0.9962776,-0.0509111,1.6627246,0.24675971,-4.538281,-3.057695,4.431817,4.7007155,1,0,0,0,0,0,0,0,0,0,0,0,0,0,0,0,0,0,0,0,0
557,1.2740915,-0.9904424,-0.029808467,1.8129269,-0.5958645,-2.9116225,-5.334581,5.49604,2.7183168,1,0,0,0,0,0,0,0,0,0,0,0,0,0,0,0,0,0,0,0,0
558,1.297008,-0.9902412,0.0023237672,1.2685769,-0.7513931,-1.8570107,-4.034529,6.02037,-0.024241293,1,0,0,0,0,0,0,0,0,0,0,0,0,0,0,0,0,0,0,0,0
559,1.3080837,-0.9880131,0.010125484,2.5692647,2.1194947,-2.2532892,-3.0325558,8.940099,7.789236,1,0,0,0,0,0,0,0,0,0,0,0,0,0,0,0,0,0,0,0,0
560,1.6193769,-1.2190095,0.14447904,1.8203838,-1.149802,-0.8673801,-5.918766,7.1803603,1.8300679,1,0,0,0,0,0,0,0,0,0,0,0,0,0,0,0,0,0,0,0,0
561,1.6317792,-1.2172784,0.16648437,0.5292862,-0.19745395,0.12864134,-3.8370075,8.640823,1.297358,1,0,0,0,0,0,0,0,0,0,0,0,0,0,0,0,0,0,0,0,0
562,1.6184393,-1.2177668,0.16154292,-0.5274561,0.52692586,0.5515513,0.2570774,8.649203,3.2222962,1,0,0,0,0,0,0,0,0,0,0,0,0,0,0,0,0,0,0,0,0
563,1.6201906,-1.214624,0.1644802,-0.6062857,0.5024248,0.19788352,-1.5242087,8.973618,4.784513,0,0,0,0,0,0,0,0,0,0,0,0,0,0,0,0,0,0,0,0,0
564,1.6228306,-1.2109925,0.16813157,-0.1141335,-0.43820372,0.5163976,-1.9647418,9.685893,5.432144,0,0,0,0,0,0,0,0,0,0,0,0,0,0,0,0,0,0,0,0,0
565,1.3510011,-1.233683,-0.15414922,0.33434284,-0.54579544,0.5494208,1.0782886,9.733777,3.527557,0,0,0,0,0,0,0,0,0,0,0,0,0,0,0,0,0,0,0,0,0
566,1.3397579,-1.2339193,-0.15396324,-0.12478614,0.06779689,0.19788352,0.45938745,9.4356985,3.1492732,0,0,0,0,0,0,0,0,0,0,0,0,0,0,0,0,0,0,0,0,0
567,1.3427749,-1.229916,-0.15099706,-0.30055478,0.19988967,0.22451513,0.07392098,9.163957,5.673959,0,0,0,0,0,0,0,0,0,0,0,0,0,0,0,0,0,0,0,0,0
568,1.3443699,-1.2256514,-0.15096103,0.35564813,0.042230543,0.14675082,0.798167,8.677934,5.31004,0,0,0,0,0,0,0,0,0,0,0,0,0,0,0,0,0,0,0,0,0
569,1.3295106,-1.3151238,-0.18634549,0.68374956,-0.23580347,-0.16324112,0.7838018,8.90658,3.4054527,0,0,0,0,0,0,0,0,0,0,0,0,0,0,0,0,0,0,0,0,0
570,1.3259065,-1.3143954,-0.17954509,0.22568585,0.030512635,-0.2505928,-0.41808748,9.083751,2.6991632,0,0,0,0,0,0,0,0,0,0,0,0,0,0,0,0,0,0,0,0,0
571,1.3184459,-1.3120744,-0.178433,0.04139511,0.097624294,-0.06417153,0.43185413,8.941296,3.4665048,0,0,0,0,0,0,0,0,0,0,0,0,0,0,0,0,0,0,0,0,0
572,1.3173043,-1.3103011,-0.17179438,0.1436605,0.12532116,-0.1312832,-0.5042787,9.10889,3.2594063,0,0,0,0,0,0,0,0,0,0,0,0,0,0,0,0,0,0,0,0,0
573,1.3148088,-1.3090609,-0.16614318,0.03713405,0.0028157602,0.028506476,-0.3366846,9.114876,3.0271688,0,0,0,0,0,0,0,0,0,0,0,0,0,0,0,0,0,0,0,0,0
574,1.2965795,-1.3043158,-0.17213766,-0.1109377,0.14662646,0.063660204,-0.3199252,9.016713,3.2462382,0,0,0,0,0,0,0,0,0,0,0,0,0,0,0,0,0,0,0,0,0
575,1.2943678,-1.3026483,-0.16746266,-0.14183037,0.0315779,0.0061359233,-0.20380642,9.07178,3.303699,0,0,0,0,0,0,0,0,0,0,0,0,0,0,0,0,0,0,0,0,0
576,1.2975417,-1.3001121,-0.15965624,-0.15248302,-0.03553376,-0.09612946,-0.8406641,9.124453,3.7095163,0,0,0,0,0,0,0,0,0,0,0,0,0,0,0,0,0,0,0,0,0
577,1.2990891,-1.297431,-0.15423927,-0.09282821,0.015598933,-0.027952539,-0.42407298,8.920945,3.7981017,0,0,0,0,0,0,0,0,0,0,0,0,0,0,0,0,0,0,0,0,0
578,1.3208202,-1.2814087,-0.118386015,-0.0736609,0.06459737,-0.00131933,-0.48033673,8.944887,4.523545,0,0,0,0,0,0,0,0,0,0,0,0,0,0,0,0,0,0,0,0,0
579,1.323554,-1.2788364,-0.112733185,-0.005483981,0.02624785,-0.014102503,-0.65750766,9.052627,3.966893,0,0,0,0,0,0,0,0,0,0,0,0,0,0,0,0,0,0,0,0,0
580,1.3251073,-1.2762183,-0.10847767,-0.094966196,-0.025950108,0.018920694,-0.40611646,9.035867,4.045902,0,0,0,0,0,0,0,0,0,0,0,0,0,0,0,0,0,0,0,0,0
581,1.3245339,-1.2735062,-0.10647098,-0.092835665,0.029443642,-0.040734112,0.03321955,8.891018,4.0794206,0,0,0,0,0,0,0,0,0,0,0,0,0,0,0,0,0,0,0,0,0
582,1.3295908,-1.2703642,-0.100046836,-0.11307569,0.18497224,-0.091866806,-0.9304466,8.938902,4.266168,0,0,0,0,0,0,0,0,0,0,0,0,0,0,0,0,0,0,0,0,0
583,1.3511848,-1.25365,-0.06182928,0.008364457,-0.0014490259,0.043421775,-0.69461775,8.875455,4.4373536,0,0,0,0,0,0,0,0,0,0,0,0,0,0,0,0,0,0,0,0,0
584,1.3503066,-1.2518232,-0.059203316,0.115956165,-0.06856068,0.05194389,-0.26485857,8.8156,3.8064814,0,0,0,0,0,0,0,0,0,0,0,0,0,0,0,0,0,0,0,0,0
585,1.3484261,-1.2507886,-0.05617332,-0.0044187168,0.11040374,-2.5406556E-4,-0.32351652,9.031078,3.4952352,0,0,0,0,0,0,0,0,0,0,0,0,0,0,0,0,0,0,0,0,0
586,1.349825,-1.2489389,-0.05141085,-0.0885746,0.088033184,0.0018764633,-0.7137714,9.014319,3.8795047,0,0,0,0,0,0,0,0,0,0,0,0,0,0,0,0,0,0,0,0,0
587,1.3310902,-1.2363119,-0.056091625,-0.059812468,0.023052055,0.06685759,-0.49470192,8.980801,4.2338467,0,0,0,0,0,0,0,0,0,0,0,0,0,0,0,0,0,0,0,0,0
588,1.3297447,-1.2345386,-0.054510705,0.13513093,-0.05364698,0.029573338,-0.09247604,8.946084,4.027945,0,0,0,0,0,0,0,0,0,0,0,0,0,0,0,0,0,0,0,0,0
589,1.3279781,-1.2340192,-0.051222283,0.05417083,0.017725734,-0.025820412,-0.37858313,9.107693,3.4305918,0,0,0,0,0,0,0,0,0,0,0,0,0,0,0,0,0,0,0,0,0
590,1.3283089,-1.232526,-0.04790165,-0.11627148,0.09549004,0.011463843,-0.4504092,9.010728,3.9058409,0,0,0,0,0,0,0,0,0,0,0,0,0,0,0,0,0,0,0,0,0
591,1.328423,-1.2313511,-0.04431313,-0.07259564,0.06885843,0.041291248,-0.49230772,8.953267,3.7214873,0,0,0,0,0,0,0,0,0,0,0,0,0,0,0,0,0,0,0,0,0
592,1.3107158,-1.2198156,-0.050110098,-0.077921964,0.03157417,0.026377546,-0.046986207,8.899397,3.956119,0,0,0,0,0,0,0,0,0,0,0,0,0,0,0,0,0,0,0,0,0
593,1.3130083,-1.2181848,-0.04647317,-0.07153038,0.074184746,-0.03008147,-0.54498017,8.986786,4.1129394,1,0,0,0,0,0,0,0,0,0,0,0,0,0,0,0,0,0,0,0,0
594,1.3158771,-1.2165451,-0.042382155,-0.008679775,0.015595205,0.041291248,-0.65391636,8.948479,4.102165,1,0,0,0,0,0,0,0,0,0,0,0,0,0,0,0,0,0,0,0,0
595,1.3152426,-1.2154946,-0.040482193,-0.02040807,-0.0014538197,0.059403405,-0.20141222,8.88982,3.8244379,1,0,0,0,0,0,0,0,0,0,0,0,0,0,0,0,0,0,0,0,0
596,1.3114077,-1.2044463,-0.03328578,-0.1034987,0.06565784,-0.013034576,-0.36780924,8.996363,3.9237974,1,0,0,0,0,0,0,0,0,0,0,0,0,0,0,0,0,0,0,0,0
597,1.315125,-1.2023888,-0.03007713,-0.1184124,0.048613608,-0.016230369,-0.57490766,8.942493,4.4972086,1,0,0,0,0,0,0,0,0,0,0,0,0,0,0,0,0,0,0,0,0
598,1.3172355,-1.2007495,-0.027657354,0.062682554,6.767092E-4,0.017858094,-0.39055416,8.897003,4.284125,1,0,0,0,0,0,0,0,0,0,0,0,0,0,0,0,0,0,0,0,0
599,1.3176852,-1.1998563,-0.025015784,0.039246738,0.028373584,8.13862E-4,-0.41210195,8.980801,3.932177,1,0,0,0,0,0,0,0,0,0,0,0,0,0,0,0,0,0,0,0,0
600,1.3178877,-1.198723,-0.023124076,-0.014016483,0.015590412,0.0050749197,-0.28401217,8.965238,4.075829,1,0,0,0,0,0,0,0,0,0,0,0,0,0,0,0,0,0,0,0,0
601,1.3204688,-1.196497,-0.015991025,-0.011885954,0.105072625,-0.006642989,-0.6299743,8.931719,3.7861307,1,0,0,0,0,0,0,0,0,0,0,0,0,0,0,0,0,0,0,0,0
602,1.3246527,-1.1961135,-0.008593013,-0.12906504,0.1625969,0.0956224,-1.2811972,8.905383,3.467702,1,0,0,0,0,0,0,0,0,0,0,0,0,0,0,0,0,0,0,0,0
603,1.3362219,-1.1942105,0.0051672375,-0.4113601,0.23823068,0.3502206,-2.692579,8.439711,3.3336265,1,0,0,0,0,0,0,0,0,0,0,0,0,0,0,0,0,0,0,0,0
604,1.352662,-1.1880902,0.020512063,-0.62334776,0.010264089,1.0138804,-4.388871,7.7358155,4.504391,1,0,0,0,0,0,0,0,0,0,0,0,0,0,0,0,0,0,0,0,0
605,0.8490255,-1.0538584,-0.41783231,-0.62228245,0.38310665,2.8344173,-10.922647,5.713912,0.8077438,1,0,0,0,0,0,0,0,0,0,0,0,0,0,0,0,0,0,0,0,0
606,0.8794011,-1.0279032,-0.37771305,-2.5589333,1.7285357,7.4118586,-11.547534,-2.8740895,-0.20021512,1,0,0,0,0,0,0,0,0,0,0,0,0,0,0,0,0,0,0,0,0
607,0.8992765,-0.98931605,-0.355755,-2.686765,-0.46803963,9.450774,-3.9196074,-7.511658,4.467281,0,0,0,0,0,0,0,0,0,0,0,0,0,0,0,0,0,0,0,0,0
608,0.9449219,-0.9617539,-0.3669186,-0.54877925,-2.2896419,9.871554,7.06499,-3.6545992,5.4477067,0,0,0,0,0,0,0,0,0,0,0,0,0,0,0,0,0,0,0,0,0
609,0.90025723,-0.9459668,-0.38964733,1.007572,-2.02013,5.931141,21.689972,3.7853825,1.4649521,0,0,0,0,0,0,0,0,0,0,0,0,0,0,0,0,0,0,0,0,0
610,0.12360488,-0.52889794,-1.1995127,-1.2550496,-0.74394315,2.9228342,13.516167,2.035221,2.3328502,0,0,0,0,0,0,0,0,0,0,0,0,0,0,0,0,0,0,0,0,0
611,0.113291666,-0.5184667,-1.1966026,-1.1953976,-0.7109215,2.661845,23.562237,0.19886838,13.3904705,0,0,0,0,0,0,0,0,0,0,0,0,0,0,0,0,0,0,0,0,0
612,0.0958673,-0.509228,-1.1980528,0.11061653,0.24781646,0.78911006,20.564695,1.2187983,6.3994017,0,0,0,0,0,0,0,0,0,0,0,0,0,0,0,0,0,0,0,0,0
613,0.08849933,-0.50026566,-1.195528,-0.13439429,0.58337474,-0.22182587,16.511312,1.1505636,8.998308,0,0,0,0,0,0,0,0,0,0,0,0,0,0,0,0,0,0,0,0,0
614,0.10618603,-0.57524115,-1.1358025,-0.05662999,0.4566083,-1.1539322,13.596373,0.7938275,7.6300216,0,0,0,0,0,0,0,0,0,0,0,0,0,0,0,0,0,0,0,0,0
615,0.112466246,-0.56480056,-1.1309613,0.19370715,0.72079384,-2.0498197,10.390536,0.71003044,8.351873,0,0,0,0,0,0,0,0,0,0,0,0,0,0,0,0,0,0,0,0,0
616,0.10884208,-0.5560165,-1.1286705,0.5867897,0.74209917,-2.9563596,12.302306,1.8269255,7.616853,0,0,0,0,0,0,0,0,0,0,0,0,0,0,0,0,0,0,0,0,0
617,0.086153954,-0.54840297,-1.1319611,0.7220783,0.6685959,-4.600063,10.4049015,1.9167081,2.9649196,0,0,0,0,0,0,0,0,0,0,0,0,0,0,0,0,0,0,0,0,0
618,0.8596393,-1.0713352,-0.44027776,-0.13332903,0.65794325,-5.4863625,8.524256,1.6772879,6.0175266,0,0,0,0,0,0,0,0,0,0,0,0,0,0,0,0,0,0,0,0,0
619,0.8667253,-1.0563824,-0.44612703,0.7551015,0.46619567,-6.039235,5.1963153,2.6062381,5.774515,0,0,0,0,0,0,0,0,0,0,0,0,0,0,0,0,0,0,0,0,0
620,0.8691172,-1.0486404,-0.44784728,0.9777418,0.17218268,-6.0498877,2.0946271,3.2658408,3.5574844,0,0,0,0,0,0,0,0,0,0,0,0,0,0,0,0,0,0,0,0,0
621,0.8852023,-1.0423725,-0.43349645,1.0661588,-0.21344304,-5.43523,-1.3123218,4.4545617,4.7474027,0,0,0,0,0,0,0,0,0,0,0,0,0,0,0,0,0,0,0,0,0
622,0.90641385,-1.0357103,-0.41584113,1.7415364,-1.3096001,-4.1665,-2.478298,4.897489,5.140052,0,0,0,0,0,0,0,0,0,0,0,0,0,0,0,0,0,0,0,0,0
623,2.3225322,-1.2797168,0.7190421,2.0547242,-1.3053391,-3.1694126,-3.3294368,5.687576,2.5962124,0,0,0,0,0,0,0,0,0,0,0,0,0,0,0,0,0,0,0,0,0
624,2.331174,-1.2730787,0.74015874,1.4858729,-0.708791,-1.9709901,-5.779902,8.215853,-1.196203,0,0,0,0,0,0,0,0,0,0,0,0,0,0,0,0,0,0,0,0,0
625,2.3331954,-1.2680106,0.75165,-0.45184308,-0.0014554175,-0.71397805,-4.7037086,7.910592,1.2315176,0,0,0,0,0,0,0,0,0,0,0,0,0,0,0,0,0,0,0,0,0
626,2.325915,-1.2608813,0.74135876,-0.73733395,0.6100064,0.121189274,-1.3290812,7.302465,5.500379,0,0,0,0,0,0,0,0,0,0,0,0,0,0,0,0,0,0,0,0,0
627,2.3591678,-1.2908857,0.7788553,0.26188406,0.07098256,0.123319805,-0.6323685,8.032697,5.6153007,0,0,0,0,0,0,0,0,0,0,0,0,0,0,0,0,0,0,0,0,0
628,2.3467278,-1.288406,0.7718765,0.6507085,-0.69600624,0.0050749197,-1.7085621,9.591322,3.7262757,0,0,0,0,0,0,0,0,0,0,0,0,0,0,0,0,0,0,0,0,0
629,2.323884,-1.2886522,0.75828284,0.19690587,-0.34446895,0.21493201,-0.24091655,9.452458,2.6057892,0,0,0,0,0,0,0,0,0,0,0,0,0,0,0,0,0,0,0,0,0
630,2.2959964,-1.2865522,0.7372465,-0.2110904,0.19348957,0.13503718,1.1046249,9.363873,3.6544497,0,0,0,0,0,0,0,0,0,0,0,0,0,0,0,0,0,0,0,0,0
631,2.2796047,-1.2821498,0.72126293,-0.181263,0.39269403,0.033837058,0.32052374,9.381829,5.168782,0,0,0,0,0,0,0,0,0,0,0,0,0,0,0,0,0,0,0,0,0
632,2.27468,-1.2882882,0.74029523,0.3481734,0.019851469,0.06472973,-0.1834557,9.474006,4.274548,0,0,0,0,0,0,0,0,0,0,0,0,0,0,0,0,0,0,0,0,0
633,2.247795,-1.2881502,0.72254956,0.3279334,-0.022759108,0.14249404,0.4115034,9.4356985,2.7793689,0,0,0,0,0,0,0,0,0,0,0,0,0,0,0,0,0,0,0,0,0
634,2.2172956,-1.2885089,0.7027239,-0.016147012,0.08802839,0.07218658,0.6628946,9.210644,2.4070706,0,0,0,0,0,0,0,0,0,0,0,0,0,0,0,0,0,0,0,0,0
635,2.198745,-1.286789,0.6890121,-0.21854725,0.33303922,-0.006642989,-0.06015432,9.099313,3.5107975,0,0,0,0,0,0,0,0,0,0,0,0,0,0,0,0,0,0,0,0,0
636,2.1603272,-1.2976466,0.6567336,0.047768854,0.021981997,0.107340306,-0.69342065,8.87785,3.9968204,0,0,0,0,0,0,0,0,0,0,0,0,0,0,0,0,0,0,0,0,0
637,2.1364706,-1.2960654,0.6394519,0.3481734,-0.25498676,0.18936567,0.6700772,8.856301,3.1851861,0,0,0,0,0,0,0,0,0,0,0,0,0,0,0,0,0,0,0,0,0
638,2.1145728,-1.2962873,0.6260855,0.12659842,-0.06217389,0.038098115,0.07272387,9.333945,2.518401,0,0,0,0,0,0,0,0,0,0,0,0,0,0,0,0,0,0,0,0,0
639,2.1013184,-1.2946424,0.6171976,-0.15250085,0.1327695,0.13929823,-0.6251859,9.283667,3.4030585,0,0,0,0,0,0,0,0,0,0,0,0,0,0,0,0,0,0,0,0,0
640,2.0861824,-1.2924421,0.60525936,-0.0129512185,-0.023824373,0.29589212,-0.07451953,9.037064,3.6736033,0,0,0,0,0,0,0,0,0,0,0,0,0,0,0,0,0,0,0,0,0
641,1.9493508,-1.3133432,0.4677679,0.1212721,-0.103719205,0.21919307,0.9023148,9.04305,3.601777,0,0,0,0,0,0,0,0,0,0,0,0,0,0,0,0,0,0,0,0,0
642,1.931912,-1.3126383,0.4574162,0.03498568,0.020916734,0.048750762,0.14215572,9.472809,2.8511949,0,0,0,0,0,0,0,0,0,0,0,0,0,0,0,0,0,0,0,0,0
643,1.9148825,-1.3104641,0.44491187,-0.16528404,0.12531264,0.08603501,0.60423666,9.415348,3.5670612,0,0,0,0,0,0,0,0,0,0,0,0,0,0,0,0,0,0,0,0,0
644,1.8966532,-1.3086028,0.43194845,-0.04917021,0.21479486,0.0104012415,0.6952163,9.336339,3.373131,0,0,0,0,0,0,0,0,0,0,0,0,0,0,0,0,0,0,0,0,0
645,1.8922517,-1.2957292,0.43666348,-0.06941183,-3.8935416E-4,-0.05884068,0.20560206,9.436895,3.431789,0,0,0,0,0,0,0,0,0,0,0,0,0,0,0,0,0,0,0,0,0
646,1.8778237,-1.2930068,0.4241141,0.03178829,-0.22516015,-0.10997337,0.76345104,9.232191,3.9525278,0,0,0,0,0,0,0,0,0,0,0,0,0,0,0,0,0,0,0,0,0
647,1.8651845,-1.2915527,0.41512883,0.15535897,-0.005715676,-0.10784284,0.084694885,9.2130375,3.3671453,0,0,0,0,0,0,0,0,0,0,0,0,0,0,0,0,0,0,0,0,0
648,1.8510855,-1.2909089,0.40611923,0.044571463,0.044351753,-0.031143805,0.102651395,9.022698,2.9026704,0,0,0,0,0,0,0,0,0,0,0,0,0,0,0,0,0,0,0,0,0
649,1.832818,-1.2904416,0.394014,-0.15889405,0.0880276,-0.044992242,0.5587468,9.02629,2.768595,0,0,0,0,0,0,0,0,0,0,0,0,0,0,0,0,0,0,0,0,0
650,1.8306248,-1.2542229,0.4280011,-0.267551,0.45447856,-0.14938815,-0.3486556,9.004743,3.9489365,0,0,0,0,0,0,0,0,0,0,0,0,0,0,0,0,0,0,0,0,0
651,1.8247446,-1.2517374,0.42109373,-0.053432863,0.04861281,-0.011969045,-0.3486556,8.953267,4.209904,0,0,0,0,0,0,0,0,0,0,0,0,0,0,0,0,0,0,0,0,0
652,1.8145579,-1.2511269,0.41342524,0.02220091,-0.122894764,0.007205715,-0.12599486,9.177125,3.3432033,0,0,0,0,0,0,0,0,0,0,0,0,0,0,0,0,0,0,0,0,0
653,1.8034217,-1.2501127,0.40418315,-0.10136976,-0.065370485,0.0945574,0.17208324,9.107693,3.5323453,0,0,0,0,0,0,0,0,0,0,0,0,0,0,0,0,0,0,0,0,0
654,1.7565072,-1.2449396,0.34965423,-0.03319284,-0.096263155,0.077513166,-0.024241293,9.0634,3.8112698,1,0,0,0,0,0,0,0,0,0,0,0,0,0,0,0,0,0,0,0,0
655,1.7453526,-1.2444575,0.341839,0.0733336,-0.14739585,0.048751026,0.13736732,9.157971,3.339612,1,0,0,0,0,0,0,0,0,0,0,0,0,0,0,0,0,0,0,0,0
656,1.7422391,-1.24422,0.34202424,-1.6964336E-4,-0.020629378,0.08603528,-1.1136031,9.205855,3.0403368,1,0,0,0,0,0,0,0,0,0,0,0,0,0,0,0,0,0,0,0,0
657,1.7557957,-1.2385601,0.3589997,-0.18978672,0.20307615,0.90415835,-5.597943,8.632443,2.2358851,1,0,0,0,0,0,0,0,0,0,0,0,0,0,0,0,0,0,0,0,0
658,1.7736108,-1.2245394,0.38169485,-0.968495,0.49282807,3.4842288,-10.076297,6.023961,0.7778163,1,0,0,0,0,0,0,0,0,0,0,0,0,0,0,0,0,0,0,0,0
659,0.55494046,-0.8956258,-0.64518714,-1.4840829,0.47578385,6.6011925,-7.5959044,0.16415246,1.415871,1,0,0,0,0,0,0,0,0,0,0,0,0,0,0,0,0,0,0,0,0
660,0.578109,-0.8603097,-0.6150011,-1.2486596,-1.0954812,8.0329075,-2.8039095,-4.3716626,2.3939025,1,0,0,0,0,0,0,0,0,0,0,0,0,0,0,0,0,0,0,0,0
661,0.6221776,-0.8321868,-0.6189754,-0.23453528,-2.4217389,8.772203,4.085406,-3.413982,3.8603508,1,0,0,0,0,0,0,0,0,0,0,0,0,0,0,0,0,0,0,0,0
662,0.5784687,-0.8163642,-0.63122004,1.1311337,-0.46910918,7.622783,13.577219,0.59151745,4.796484,1,0,0,0,0,0,0,0,0,0,0,0,0,0,0,0,0,0,0,0,0
663,-0.20313661,-0.40607554,-0.9385815,1.1971802,1.2640761,4.907424,14.460679,1.1972505,4.126107,1,0,0,0,0,0,0,0,0,0,0,0,0,0,0,0,0,0,0,0,0
664,-0.21391003,-0.39882538,-0.9461963,0.6347205,-0.0398076,3.6259105,15.93431,0.71721303,4.093786,1,0,0,0,0,0,0,0,0,0,0,0,0,0,0,0,0,0,0,0,0
665,-0.22512232,-0.3910176,-0.95455176,0.07971773,-1.2723186,2.342267,22.653637,0.19527708,4.7533884,1,0,0,0,0,0,0,0,0,0,0,0,0,0,0,0,0,0,0,0,0
666,-0.23582691,-0.3841655,-0.9641449,-0.36982384,0.39055923,0.24263075,21.127333,1.0332477,2.9038675,1,0,0,0,0,0,0,0,0,0,0,0,0,0,0,0,0,0,0,0,0
667,-0.23251829,-0.3754725,-0.96690416,-0.712839,1.5602195,-0.38374475,14.476241,-0.81986445,7.3295493,1,0,0,0,0,0,0,0,0,0,0,0,0,0,0,0,0,0,0,0,0
668,-0.12202026,-0.3523551,-0.75918037,-0.13120462,0.002802977,-0.7288904,15.358504,-0.16983868,7.632416,1,0,0,0,0,0,0,0,0,0,0,0,0,0,0,0,0,0,0,0,0
669,-0.12433181,-0.3464873,-0.76740247,0.28211796,0.58124155,-1.9816414,13.74601,0.8812159,5.820005,1,0,0,0,0,0,0,0,0,0,0,0,0,0,0,0,0,0,0,0,0
670,-0.13369201,-0.34259832,-0.77813065,0.18624417,1.2363791,-2.7113476,12.450747,1.9777602,3.4054527,1,0,0,0,0,0,0,0,0,0,0,0,0,0,0,0,0,0,0,0,0
671,-0.14455609,-0.33789715,-0.787109,-0.2153605,0.009194563,-4.25172,12.550106,1.4390649,4.49242,1,0,0,0,0,0,0,0,0,0,0,0,0,0,0,0,0,0,0,0,0
672,0.5594726,-0.7013024,-0.42013216,-0.34319225,0.3767108,-5.595018,10.044574,1.2834418,6.2509613,1,0,0,0,0,0,0,0,0,0,0,0,0,0,0,0,0,0,0,0,0
673,0.579007,-0.6902387,-0.43129197,0.2842485,1.1202654,-6.5676045,8.119636,1.4606127,5.4680576,0,0,0,0,0,0,0,0,0,0,0,0,0,0,0,0,0,0,0,0,0
674,0.59857196,-0.6831837,-0.43991295,0.5622825,0.9157346,-6.9756007,3.5622728,1.6461633,3.0523078,0,0,0,0,0,0,0,0,0,0,0,0,0,0,0,0,0,0,0,0,0
675,0.6238329,-0.68127257,-0.42615178,0.41421077,0.6068079,-6.6901097,-1.1088147,3.007267,4.3763013,0,0,0,0,0,0,0,0,0,0,0,0,0,0,0,0,0,0,0,0,0
676,0.65287936,-0.6818641,-0.4044677,0.99584514,-0.33595112,-5.148672,-2.8350341,3.991284,3.6676178,0,0,0,0,0,0,0,0,0,0,0,0,0,0,0,0,0,0,0,0,0
677,1.5830387,-0.90825754,0.22195007,1.4038414,-1.3554091,-3.46662,-3.8573582,5.643283,4.6049476,0,0,0,0,0,0,0,0,0,0,0,0,0,0,0,0,0,0,0,0,0
678,1.5993658,-0.9091582,0.24382159,1.5252742,-1.3341076,-2.177648,-4.934749,7.1815577,1.2877812,0,0,0,0,0,0,0,0,0,0,0,0,0,0,0,0,0,0,0,0,0
679,1.6102239,-0.91349214,0.25942156,0.5207297,-0.42543706,-1.0165099,-2.9954455,7.3551373,1.8240824,0,0,0,0,0,0,0,0,0,0,0,0,0,0,0,0,0,0,0,0,0
680,1.6136756,-0.91775435,0.26392657,-0.08753624,0.58762944,-0.36030704,-1.634342,7.3706994,3.1037831,0,0,0,0,0,0,0,0,0,0,0,0,0,0,0,0,0,0,0,0,0
681,1.642994,-0.881899,0.3723653,-0.14825632,0.45553663,-0.08972988,-1.7863737,8.366688,4.9006314,0,0,0,0,0,0,0,0,0,0,0,0,0,0,0,0,0,0,0,0,0
682,1.644502,-0.88637495,0.37291542,0.37904957,-0.25712526,-0.0354014,-1.8222867,9.327959,4.311658,0,0,0,0,0,0,0,0,0,0,0,0,0,0,0,0,0,0,0,0,0
683,1.6359985,-0.89414555,0.36777923,0.17025775,-0.18362203,0.07005978,-0.32471362,9.195082,2.7841573,0,0,0,0,0,0,0,0,0,0,0,0,0,0,0,0,0,0,0,0,0
684,1.6295007,-0.9002663,0.36226094,-0.33148178,0.59828204,0.10734403,-0.3378817,9.478794,3.6676178,0,0,0,0,0,0,0,0,0,0,0,0,0,0,0,0,0,0,0,0,0
685,1.6264648,-0.9038808,0.35507926,-0.18873636,0.2051995,-0.014096112,-0.015861586,9.365069,4.9928083,0,0,0,0,0,0,0,0,0,0,0,0,0,0,0,0,0,0,0,0,0
686,1.6228596,-0.89084625,0.3643314,0.34709165,-0.20279679,-0.13873205,0.101454295,9.221417,4.834791,0,0,0,0,0,0,0,0,0,0,0,0,0,0,0,0,0,0,0,0,0
687,1.6133232,-0.89803684,0.35777625,0.41633382,0.0049297772,-0.11955729,-0.116418056,9.593716,3.1815948,0,0,0,0,0,0,0,0,0,0,0,0,0,0,0,0,0,0,0,0,0
688,1.606404,-0.9064275,0.35522076,0.10527662,0.18709,-0.11316571,-0.55575407,9.420136,2.3735516,0,0,0,0,0,0,0,0,0,0,0,0,0,0,0,0,0,0,0,0,0
689,1.6027187,-0.9118978,0.350927,-0.17701845,0.28402907,0.050885018,-0.5210382,9.027487,3.68318,0,0,0,0,0,0,0,0,0,0,0,0,0,0,0,0,0,0,0,0,0
690,1.5804354,-0.91540754,0.34694603,0.064796574,0.08269408,0.081777684,0.07272387,8.688707,4.045902,0,0,0,0,0,0,0,0,0,0,0,0,0,0,0,0,0,0,0,0,0
691,1.5706506,-0.92324436,0.3414118,0.23097782,-0.007853395,-0.11423097,-0.1738789,9.18311,2.471714,0,0,0,0,0,0,0,0,0,0,0,0,0,0,0,0,0,0,0,0,0
692,1.5678632,-0.9294271,0.339629,-0.13121209,0.023039272,-0.0055739963,-0.79756844,9.078962,3.0942063,0,0,0,0,0,0,0,0,0,0,0,0,0,0,0,0,0,0,0,0,0
693,1.5670578,-0.93464935,0.33791193,-0.098188885,0.13063098,0.041297637,-0.90530753,9.021502,3.4904468,0,0,0,0,0,0,0,0,0,0,0,0,0,0,0,0,0,0,0,0,0
694,1.5647037,-0.9522947,0.32485372,0.094623975,-0.07709558,0.008274442,0.06075287,8.979603,3.3743281,0,0,0,0,0,0,0,0,0,0,0,0,0,0,0,0,0,0,0,0,0
695,1.5622609,-0.95741105,0.32238325,-0.0055138087,-0.06750953,-0.015160577,-0.69820905,9.201067,3.421015,0,0,0,0,0,0,0,0,0,0,0,0,0,0,0,0,0,0,0,0,0
696,1.5609757,-0.96202296,0.3203018,-0.04918965,0.060322195,-0.01622584,-0.80834234,9.269301,3.6436758,0,0,0,0,0,0,0,0,0,0,0,0,0,0,0,0,0,0,0,0,0
697,1.5572927,-0.9660362,0.3148974,-0.07901705,0.089084335,0.11054063,-0.19782092,9.138818,3.9465423,0,0,0,0,0,0,0,0,0,0,0,0,0,0,0,0,0,0,0,0,0
698,1.5528028,-0.9703099,0.30948815,0.062663116,0.03688638,-0.022617428,-0.1666963,9.101707,3.7490206,0,0,0,0,0,0,0,0,0,0,0,0,0,0,0,0,0,0,0,0,0
699,1.5622611,-0.98504716,0.3213241,0.049879942,0.07949696,-0.03753113,-0.5892729,9.244163,3.2402527,0,0,0,0,0,0,0,0,0,0,0,0,0,0,0,0,0,0,0,0,0
700,1.561238,-0.9886551,0.3184558,0.036031503,0.041147437,0.04662476,-0.68982935,9.083751,3.8364089,0,0,0,0,0,0,0,0,0,0,0,0,0,0,0,0,0,0,0,0,0
701,1.5554903,-0.9936869,0.3140322,0.120187394,-0.04194319,0.05408161,-0.3007716,9.025093,3.0822353,0,0,0,0,0,0,0,0,0,0,0,0,0,0,0,0,0,0,0,0,0
702,1.5523111,-0.9983194,0.31139004,0.0030083067,-0.004658934,0.041298438,-0.5916671,9.086145,3.2163107,1,0,0,0,0,0,0,0,0,0,0,0,0,0,0,0,0,0,0,0,0
703,1.5318274,-0.99763143,0.3026032,-0.059842296,0.060322195,0.048755288,-0.40491936,9.081357,3.077447,1,0,0,0,0,0,0,0,0,0,0,0,0,0,0,0,0,0,0,0,0
704,1.5281763,-1.0016344,0.29840666,-0.11843184,0.026233735,0.053016346,-0.33189622,9.15438,3.5670612,1,0,0,0,0,0,0,0,0,0,0,0,0,0,0,0,0,0,0,0,0
705,1.5257672,-1.0050598,0.2943709,-0.074756,-0.029160015,0.05195108,-0.37379473,9.219024,3.8567595,1,0,0,0,0,0,0,0,0,0,0,0,0,0,0,0,0,0,0,0,0
706,1.5221611,-1.0086834,0.28981608,0.07011996,-0.054726362,0.07858269,-0.24809915,9.207052,3.717896,1,0,0,0,0,0,0,0,0,0,0,0,0,0,0,0,0,0,0,0,0
707,1.5163544,-1.0127013,0.28429735,0.09994737,-0.031290546,0.053016346,-0.04818331,9.1890955,3.4712932,1,0,0,0,0,0,0,0,0,0,0,0,0,0,0,0,0,0,0,0,0
708,1.5106891,-1.0250787,0.27914155,-0.024688568,0.08482328,-0.029009014,-0.5988497,9.284863,3.3240497,1,0,0,0,0,0,0,0,0,0,0,0,0,0,0,0,0,0,0,0,0
709,1.5086228,-1.0282694,0.2763499,-0.033210684,-3.9787625E-4,0.05834267,-0.5138555,9.084948,3.658041,1,0,0,0,0,0,0,0,0,0,0,0,0,0,0,0,0,0,0,0,0
710,1.5067226,-1.0314277,0.2737951,0.06692417,-0.06644427,0.10627957,-0.5377976,8.973618,3.5922003,1,0,0,0,0,0,0,0,0,0,0,0,0,0,0,0,0,0,0,0,0
711,1.5089917,-1.0350271,0.27638435,0.12657152,-0.04407718,0.14356542,-1.3410522,9.095722,3.1432877,1,0,0,0,0,0,0,0,0,0,0,0,0,0,0,0,0,0,0,0,0
712,1.3724941,-1.0519384,0.14955279,-1.949434E-4,-0.08562249,0.5867154,-3.8453872,8.968829,2.532766,1,0,0,0,0,0,0,0,0,0,0,0,0,0,0,0,0,0,0,0,0
713,1.3953359,-1.0491765,0.17416601,-0.4326923,0.26271898,2.0003214,-6.004957,7.9297457,1.1584944,1,0,0,0,0,0,0,0,0,0,0,0,0,0,0,0,0,0,0,0,0
714,1.4200178,-1.0404929,0.20053054,-1.3733208,0.46618447,4.2704,-6.7615247,4.7909474,0.5312135,1,0,0,0,0,0,0,0,0,0,0,0,0,0,0,0,0,0,0,0,0
715,1.4410161,-1.0246977,0.22258928,-2.1584206,0.07736296,6.0440655,-5.409998,1.4366707,1.4817116,0,0,0,0,0,0,0,0,0,0,0,0,0,0,0,0,0,0,0,0,0
716,1.4449183,-0.9905222,0.24303785,-2.0284584,-1.7463697,7.9327793,-5.520131,-4.7511435,1.8647839,0,0,0,0,0,0,0,0,0,0,0,0,0,0,0,0,0,0,0,0,0
717,0.2323401,-0.17783085,-0.9776535,-1.1059394,-3.3091125,9.861973,4.5750203,-6.254702,6.6795235,0,0,0,0,0,0,0,0,0,0,0,0,0,0,0,0,0,0,0,0,0
718,0.21502534,-0.17578901,-0.98185533,1.8288641,-1.2254554,7.263793,20.355204,1.6653169,8.202236,0,0,0,0,0,0,0,0,0,0,0,0,0,0,0,0,0,0,0,0,0
719,0.1915816,-0.17368579,-0.99011123,2.163357,1.8041567,4.2128754,14.1626005,1.0176854,2.520795,0,0,0,0,0,0,0,0,0,0,0,0,0,0,0,0,0,0,0,0,0
720,0.16768107,-0.1716081,-1.0006891,1.0821137,-0.19214894,3.1380236,18.007689,1.2606969,0.9334394,0,0,0,0,0,0,0,0,0,0,0,0,0,0,0,0,0,0,0,0,0
721,0.062437117,0.07249158,-1.1026605,-0.5434798,-0.51279354,1.6626325,20.444986,0.41674075,3.3587656,0,0,0,0,0,0,0,0,0,0,0,0,0,0,0,0,0,0,0,0,0
722,0.051071838,0.07131763,-1.1054655,-0.4955429,0.6547363,0.44929633,16.092327,-0.23448212,5.474043,0,0,0,0,0,0,0,0,0,0,0,0,0,0,0,0,0,0,0,0,0
723,0.049926408,0.070130594,-1.1050236,-0.055588692,0.540753,0.09562852,14.396035,-0.1949778,7.6312184,0,0,0,0,0,0,0,0,0,0,0,0,0,0,0,0,0,0,0,0,0
724,0.041080028,0.067839205,-1.1077102,0.042415634,-0.08029617,-0.7278209,16.014517,0.7531261,5.511153,0,0,0,0,0,0,0,0,0,0,0,0,0,0,0,0,0,0,0,0,0
725,0.04078013,0.066369765,-1.1069498,-0.33894902,0.560993,-1.8506095,12.69735,0.0815525,6.954857,0,0,0,0,0,0,0,0,0,0,0,0,0,0,0,0,0,0,0,0,0
726,0.19353174,-0.16144644,-1.038863,0.12976731,-0.10160146,-2.6527536,14.157812,0.9805752,6.6699467,0,0,0,0,0,0,0,0,0,0,0,0,0,0,0,0,0,0,0,0,0
727,0.18262985,-0.16048652,-1.0416628,0.33536336,-0.45526925,-4.4519854,15.0221195,1.8520646,6.209063,0,0,0,0,0,0,0,0,0,0,0,0,0,0,0,0,0,0,0,0,0
728,0.1653629,-0.15861626,-1.0438343,0.23842882,0.6696521,-5.8368297,11.064504,0.8129811,4.9485154,0,0,0,0,0,0,0,0,0,0,0,0,0,0,0,0,0,0,0,0,0
729,0.19606628,-0.15869027,-1.0405307,0.67731774,1.0701915,-6.4589443,7.649175,1.6270097,6.340744,0,0,0,0,0,0,0,0,0,0,0,0,0,0,0,0,0,0,0,0,0
730,0.69004387,-0.9335118,-0.625192,1.4975713,0.8560734,-6.316199,4.4505215,2.8109424,3.0954034,0,0,0,0,0,0,0,0,0,0,0,0,0,0,0,0,0,0,0,0,0
731,0.7105348,-0.9368635,-0.60345507,1.125794,0.5439509,-6.0488176,-0.6287772,2.781015,1.2638392,0,0,0,0,0,0,0,0,0,0,0,0,0,0,0,0,0,0,0,0,0
732,0.7407463,-0.936123,-0.5713406,0.95322126,-0.17403731,-4.5169673,-2.9918542,4.4725184,1.9114708,0,0,0,0,0,0,0,0,0,0,0,0,0,0,0,0,0,0,0,0,0
733,0.76993513,-0.93691486,-0.5402448,1.2994322,-0.82065284,-2.979791,-3.045724,5.40506,2.0275896,0,0,0,0,0,0,0,0,0,0,0,0,0,0,0,0,0,0,0,0,0
734,0.80895007,-0.93933433,-0.4952991,1.3313901,-0.9900299,-1.989095,-3.9315784,7.046285,-0.53899467,0,0,0,0,0,0,0,0,0,0,0,0,0,0,0,0,0,0,0,0,0
735,1.1383549,-1.1689076,-0.32942528,0.46426487,-1.1657985,-1.2551278,-3.3521817,7.9189715,-0.102052845,0,0,0,0,0,0,0,0,0,0,0,0,0,0,0,0,0,0,0,0,0
736,1.1536579,-1.1728708,-0.3082723,-0.10884739,-0.40306917,-0.7832157,-1.1387422,8.281693,1.2770073,0,0,0,0,0,0,0,0,0,0,0,0,0,0,0,0,0,0,0,0,0
737,1.1694282,-1.1723883,-0.2908057,-0.35811925,0.22437158,-0.30597723,-2.1909938,9.112481,3.455731,0,0,0,0,0,0,0,0,0,0,0,0,0,0,0,0,0,0,0,0,0
738,1.1801348,-1.1710361,-0.28195235,0.047746483,-0.17297204,0.1243896,-0.70419455,9.254936,4.6013565,0,0,0,0,0,0,0,0,0,0,0,0,0,0,0,0,0,0,0,0,0
739,1.0865138,-1.2125604,-0.42186937,0.28743097,-0.41478708,0.11693274,-0.086490534,9.720609,1.4326304,0,0,0,0,0,0,0,0,0,0,0,0,0,0,0,0,0,0,0,0,0
740,1.0766045,-1.2142572,-0.4232072,-0.47210255,-0.16658045,0.14462961,1.2889783,9.79004,2.42383,0,0,0,0,0,0,0,0,0,0,0,0,0,0,0,0,0,0,0,0,0
741,1.0815839,-1.2135344,-0.4173864,-0.5669111,0.548212,-0.09292435,0.5216367,9.556605,3.9237974,0,0,0,0,0,0,0,0,0,0,0,0,0,0,0,0,0,0,0,0,0
742,1.0931934,-1.2113837,-0.4078759,-0.22709174,0.2531337,-0.0045074,-0.27443537,9.41894,4.7150807,0,0,0,0,0,0,0,0,0,0,0,0,0,0,0,0,0,0,0,0,0
743,1.0967759,-1.2103014,-0.40405202,0.26186463,-0.3391533,0.02425474,0.881964,9.34831,4.0063972,0,0,0,0,0,0,0,0,0,0,0,0,0,0,0,0,0,0,0,0,0
744,1.0365169,-1.2570033,-0.49708602,0.18729612,0.031558726,-0.06416221,0.72993225,9.463232,1.8480245,0,0,0,0,0,0,0,0,0,0,0,0,0,0,0,0,0,0,0,0,0
745,1.041938,-1.2564694,-0.48770577,-0.22922386,0.34474567,-0.07374932,0.09307459,9.359084,3.314473,0,0,0,0,0,0,0,0,0,0,0,0,0,0,0,0,0,0,0,0,0
746,1.04799,-1.255271,-0.47909132,0.06905017,-0.029162146,0.012537097,0.20560206,9.19149,3.6041713,0,0,0,0,0,0,0,0,0,0,0,0,0,0,0,0,0,0,0,0,0
747,1.0472298,-1.2572027,-0.4710557,0.22244824,-0.05685902,-0.007702927,0.15891513,9.247754,2.0515316,0,0,0,0,0,0,0,0,0,0,0,0,0,0,0,0,0,0,0,0,0
748,1.0232698,-1.2563267,-0.473013,-0.052389972,0.13062751,0.05621294,0.6640917,9.205855,2.5459342,0,0,0,0,0,0,0,0,0,0,0,0,0,0,0,0,0,0,0,0,0
749,1.0304697,-1.2568733,-0.46054366,-0.09713107,0.059254803,-0.08120617,-0.41210195,9.310003,2.7183168,0,0,0,0,0,0,0,0,0,0,0,0,0,0,0,0,0,0,0,0,0
750,1.0374613,-1.2567419,-0.44939664,-0.09500055,0.00599158,0.03277712,-0.2947861,9.187899,3.0355484,0,0,0,0,0,0,0,0,0,0,0,0,0,0,0,0,0,0,0,0,0
751,1.0397478,-1.2562869,-0.44301012,0.017917482,-0.088816956,0.11160669,0.41868603,9.219024,3.2007484,0,0,0,0,0,0,0,0,0,0,0,0,0,0,0,0,0,0,0,0,0
752,1.0433547,-1.2560159,-0.4353334,-0.0140404515,0.0070568444,0.047690824,0.18884265,9.381829,3.1875803,0,0,0,0,0,0,0,0,0,0,0,0,0,0,0,0,0,0,0,0,0
753,1.0283417,-1.2471277,-0.4444855,-0.017236244,0.076299034,0.007210775,0.15891513,9.44767,3.3563714,0,0,0,0,0,0,0,0,0,0,0,0,0,0,0,0,0,0,0,0,0
754,1.0328476,-1.24703,-0.43622273,0.026439596,0.08269062,0.061539263,0.100257196,9.383026,3.1971571,1,0,0,0,0,0,0,0,0,0,0,0,0,0,0,0,0,0,0,0,0
755,1.0311953,-1.2466857,-0.43322578,0.032831185,0.064581126,0.08923613,0.9418191,9.396194,3.1983542,1,0,0,0,0,0,0,0,0,0,0,0,0,0,0,0,0,0,0,0,0
756,1.0330778,-1.2471435,-0.42643836,0.012591159,-0.035553735,-0.117425166,0.27503392,9.446472,2.921824,1,0,0,0,0,0,0,0,0,0,0,0,0,0,0,0,0,0,0,0,0
757,1.0579842,-1.2482728,-0.39734262,0.03496171,0.089082204,-0.03007348,0.16609775,9.343522,3.1193454,1,0,0,0,0,0,0,0,0,0,0,0,0,0,0,0,0,0,0,0,0
758,1.0580943,-1.2480698,-0.39323485,0.092485994,-0.028096883,0.050886616,0.60902506,9.239374,3.1337109,1,0,0,0,0,0,0,0,0,0,0,0,0,0,0,0,0,0,0,0,0
759,1.0609308,-1.2494693,-0.38447908,0.080768086,-0.05898955,-0.09718514,-0.10684125,9.287258,2.3962967,1,0,0,0,0,0,0,0,0,0,0,0,0,0,0,0,0,0,0,0,0
760,1.062734,-1.2497293,-0.3784709,-0.071564734,-0.0014652712,0.030646592,0.2451064,9.1651535,2.908656,1,0,0,0,0,0,0,0,0,0,0,0,0,0,0,0,0,0,0,0,0
761,1.0661584,-1.2496454,-0.37175426,-0.005525793,0.04753343,0.06580218,0.13257892,9.222614,3.1073744,1,0,0,0,0,0,0,0,0,0,0,0,0,0,0,0,0,0,0,0,0
762,1.0372201,-1.2471255,-0.39027292,-0.018308965,0.0049228533,0.0072126393,0.34326866,9.379435,2.9002762,1,0,0,0,0,0,0,0,0,0,0,0,0,0,0,0,0,0,0,0,0
763,1.040474,-1.2472718,-0.38359872,-0.022570023,-0.038752988,-0.0013094763,0.17567454,9.493159,3.102586,1,0,0,0,0,0,0,0,0,0,0,0,0,0,0,0,0,0,0,0,0
764,1.0434396,-1.2469547,-0.37801707,0.020040553,0.043272372,0.026387399,0.34805706,9.450064,3.3180642,1,0,0,0,0,0,0,0,0,0,0,0,0,0,0,0,0,0,0,0,0
765,1.0485955,-1.2479596,-0.36840662,0.08395642,0.07736083,0.023191605,-0.26964697,9.390208,2.6213515,1,0,0,0,0,0,0,0,0,0,0,0,0,0,0,0,0,0,0,0,0
766,1.0263946,-1.24223,-0.37139857,-0.106725916,0.10612297,0.23304869,-2.1874025,9.202264,1.558326,1,0,0,0,0,0,0,0,0,0,0,0,0,0,0,0,0,0,0,0,0
767,1.0510383,-1.2405262,-0.34344128,-0.5988781,0.63023305,1.1640898,-3.0983963,8.248175,1.8755578,1,0,0,0,0,0,0,0,0,0,0,0,0,0,0,0,0,0,0,0,0
768,1.0699724,-1.2338899,-0.3339583,-0.84601945,0.66645205,2.018432,-0.69820905,6.8727055,5.3112373,1,0,0,0,0,0,0,0,0,0,0,0,0,0,0,0,0,0,0,0,0
769,1.079093,-1.2301356,-0.33018538,0.0786301,-0.020643493,1.8863391,0.64254385,7.6675806,4.3906665,1,0,0,0,0,0,0,0,0,0,0,0,0,0,0,0,0,0,0,0,0
770,1.0970848,-1.234768,-0.3035655,0.09460907,-0.32211334,1.6498504,-0.79517424,8.627655,0.50966567,1,0,0,0,0,0,0,0,0,0,0,0,0,0,0,0,0,0,0,0,0
771,0.6385619,-1.1052662,-0.7506281,-1.1347061,0.5929488,2.8876877,-6.2359977,7.150433,-1.9036896,1,0,0,0,0,0,0,0,0,0,0,0,0,0,0,0,0,0,0,0,0
772,0.6764066,-1.0895737,-0.7060621,-2.5749435,0.53862035,5.542327,-5.8289833,1.9442414,0.5443816,1,0,0,0,0,0,0,0,0,0,0,0,0,0,0,0,0,0,0,0,0
773,0.7001455,-1.0545148,-0.6796257,-2.4737434,-0.87605083,7.540763,-2.7177181,-3.677344,3.8411973,1,0,0,0,0,0,0,0,0,0,0,0,0,0,0,0,0,0,0,0,0
774,0.7360478,-1.0224268,-0.67746645,-1.0622681,-1.9359889,8.93839,4.179977,-4.7355814,6.4975643,1,0,0,0,0,0,0,0,0,0,0,0,0,0,0,0,0,0,0,0,0
775,0.019057676,0.00373474,-1.3509799,1.0075407,-0.54049253,7.1615286,17.802984,-1.0125977,7.2457523,1,0,0,0,0,0,0,0,0,0,0,0,0,0,0,0,0,0,0,0,0
776,2.2337027E-4,0.004322188,-1.3488117,1.4570823,0.79002273,4.363079,13.476662,-0.4715081,4.5893855,1,0,0,0,0,0,0,0,0,0,0,0,0,0,0,0,0,0,0,0,0
777,-0.012188167,0.0050488478,-1.3466696,0.6773087,-0.26885012,3.2807703,17.876007,-0.7683891,6.104915,1,0,0,0,0,0,0,0,0,0,0,0,0,0,0,0,0,0,0,0,0
778,-0.026578594,0.0063271914,-1.345766,-0.11097951,-0.5255754,1.909773,20.26183,-1.4519337,5.592556,1,0,0,0,0,0,0,0,0,0,0,0,0,0,0,0,0,0,0,0,0
779,-0.06967213,0.109859884,-1.3135002,0.06798491,0.20626129,0.8157465,18.195633,-1.5237597,7.2756796,1,0,0,0,0,0,0,0,0,0,0,0,0,0,0,0,0,0,0,0,0
780,-0.07740824,0.108769596,-1.3111802,0.40141267,0.22543605,0.15421727,16.253937,-0.96710783,6.365883,1,0,0,0,0,0,0,0,0,0,0,0,0,0,0,0,0,0,0,0,0
781,-0.08654655,0.10645668,-1.3103343,0.53350544,-0.09307801,-0.91317767,15.313015,0.11028291,4.7689505,1,0,0,0,0,0,0,0,0,0,0,0,0,0,0,0,0,0,0,0,0
782,-0.09869324,0.10451679,-1.3100584,0.1883598,0.20200023,-1.8474146,12.163443,-0.11956045,3.4222121,1,0,0,0,0,0,0,0,0,0,0,0,0,0,0,0,0,0,0,0,0
783,-0.10337183,0.101650506,-1.3068188,-0.20365752,-0.035553735,-2.4152005,10.859799,0.46223056,4.8850694,1,0,0,0,0,0,0,0,0,0,0,0,0,0,0,0,0,0,0,0,0
784,0.0063643036,-0.24247746,-1.3359131,-0.16637327,-0.5862954,-3.3494375,13.870508,2.1453543,5.9899936,1,0,0,0,0,0,0,0,0,0,0,0,0,0,0,0,0,0,0,0,0
785,-0.008230926,-0.24011166,-1.3341999,0.17344609,-1.0901655,-5.2392163,13.2073145,1.7371429,4.384681,1,0,0,0,0,0,0,0,0,0,0,0,0,0,0,0,0,0,0,0,0
786,-0.03738959,-0.23632571,-1.3314073,-0.07795632,-0.2070613,-6.7529573,10.620379,0.58074355,4.195539,1,0,0,0,0,0,0,0,0,0,0,0,0,0,0,0,0,0,0,0,0
787,-0.06899076,-0.23583043,-1.3281604,0.19475138,0.38309518,-7.4911857,8.706215,2.0316298,3.6987424,1,0,0,0,0,0,0,0,0,0,0,0,0,0,0,0,0,0,0,0,0
788,0.69794464,-1.1962777,-0.74379253,-0.04280259,0.21158761,-8.044058,3.0822353,0.79981303,2.4992473,1,0,0,0,0,0,0,0,0,0,0,0,0,0,0,0,0,0,0,0,0
789,0.7258887,-1.1850313,-0.7163626,-0.46038625,-0.014248445,-6.6975636,-2.005443,2.5104702,2.7638066,1,0,0,0,0,0,0,0,0,0,0,0,0,0,0,0,0,0,0,0,0
790,0.75459945,-1.1749564,-0.688972,-0.08860896,-0.6267755,-4.4615736,-3.5173817,4.692785,4.596568,1,0,0,0,0,0,0,0,0,0,0,0,0,0,0,0,0,0,0,0,0
791,0.78597903,-1.1670237,-0.6555038,0.57931185,-1.9477034,-3.3622205,-5.767931,6.8272157,3.8316205,1,0,0,0,0,0,0,0,0,0,0,0,0,0,0,0,0,0,0,0,0
792,0.81879395,-1.1601156,-0.61890996,0.60913926,-1.1530161,-2.0040085,-5.5189342,6.4333696,2.3113024,1,0,0,0,0,0,0,0,0,0,0,0,0,0,0,0,0,0,0,0,0
793,1.1493698,-1.2607621,-0.3688553,0.1191176,0.050732687,-0.5264867,-2.41964,7.207894,3.7633858,1,0,0,0,0,0,0,0,0,0,0,0,0,0,0,0,0,0,0,0,0
794,1.1675998,-1.255464,-0.35031223,0.122313395,0.11677908,-0.20797265,-2.6458921,7.708282,4.236241,1,0,0,0,0,0,0,0,0,0,0,0,0,0,0,0,0,0,0,0,0
795,1.1809025,-1.2527869,-0.3350374,0.31726584,-0.35619408,0.16167198,-1.6163855,8.346336,3.6843772,1,0,0,0,0,0,0,0,0,0,0,0,0,0,0,0,0,0,0,0,0
796,1.1854416,-1.2541044,-0.32349232,0.27252474,-0.15592435,0.17871621,-0.57371056,9.284863,2.3220763,0,0,0,0,0,0,0,0,0,0,0,0,0,0,0,0,0,0,0,0,0
797,1.1329434,-1.2206601,-0.3363815,-0.20364846,0.22224452,0.21600047,-0.39893386,9.281273,2.399888,0,0,0,0,0,0,0,0,0,0,0,0,0,0,0,0,0,0,0,0,0
798,1.1384089,-1.2193931,-0.3306468,-0.29632646,0.117848605,0.15421514,0.20799628,9.551817,4.185962,0,0,0,0,0,0,0,0,0,0,0,0,0,0,0,0,0,0,0,0,0
799,1.1432729,-1.2187964,-0.3245166,-0.073686205,0.14874128,0.04981922,0.09307459,9.621249,3.8555624,0,0,0,0,0,0,0,0,0,0,0,0,0,0,0,0,0,0,0,0,0
800,1.1471173,-1.2180617,-0.31964922,-0.041728273,0.15726338,0.058341336,0.31453824,9.474006,3.8675337,0,0,0,0,0,0,0,0,0,0,0,0,0,0,0,0,0,0,0,0,0
801,1.1456345,-1.2181385,-0.31751013,0.024318123,-0.10159586,-0.06309881,0.71915835,9.365069,3.3300352,0,0,0,0,0,0,0,0,0,0,0,0,0,0,0,0,0,0,0,0,0
802,1.2012177,-1.2216389,-0.26743743,-0.06835988,0.15406759,-0.067359865,-0.49709612,9.3938,4.0207624,0,0,0,0,0,0,0,0,0,0,0,0,0,0,0,0,0,0,0,0,0
803,1.2076645,-1.2201483,-0.2616777,0.22778364,-0.05152844,0.079646625,-0.082899235,8.946084,4.033931,0,0,0,0,0,0,0,0,0,0,0,0,0,0,0,0,0,0,0,0,0
804,1.2069142,-1.2213329,-0.25722855,0.2767858,-0.12396642,0.032774992,0.1062427,9.033473,2.707543,0,0,0,0,0,0,0,0,0,0,0,0,0,0,0,0,0,0,0,0,0
805,1.2073145,-1.2226696,-0.25160924,0.028579181,0.021974808,0.053015016,-0.06254852,9.074174,2.6345196,0,0,0,0,0,0,0,0,0,0,0,0,0,0,0,0,0,0,0,0,0
806,1.2145478,-1.2074888,-0.21266653,-0.115231514,0.22224452,0.057276074,-0.65511346,9.020305,3.44376,0,0,0,0,0,0,0,0,0,0,0,0,0,0,0,0,0,0,0,0,0
807,1.2180026,-1.2076414,-0.2077511,0.026448652,0.057128534,0.021057082,-0.11162966,9.078962,3.3707366,0,0,0,0,0,0,0,0,0,0,0,0,0,0,0,0,0,0,0,0,0
808,1.2218361,-1.2079735,-0.20215443,0.03070971,0.024105337,0.14249723,-0.23612814,9.078962,3.2701802,0,0,0,0,0,0,0,0,0,0,0,0,0,0,0,0,0,0,0,0,0
809,1.2218078,-1.2084482,-0.19973406,-0.004444017,0.016648484,-0.0055745286,0.26426002,9.244163,3.2498295,0,0,0,0,0,0,0,0,0,0,0,0,0,0,0,0,0,0,0,0,0
810,1.225389,-1.2081348,-0.19573127,-0.035336684,0.04434536,0.10627823,-0.001496376,9.259725,3.6771946,0,0,0,0,0,0,0,0,0,0,0,0,0,0,0,0,0,0,0,0,0
811,1.1952431,-1.2040261,-0.21984813,0.016852217,0.05179795,0.07432243,-0.56533086,9.232191,3.5323453,0,0,0,0,0,0,0,0,0,0,0,0,0,0,0,0,0,0,0,0,0
812,1.1928293,-1.2044625,-0.21954663,0.077572286,-0.12184015,0.22239418,0.6664859,9.122058,3.2091281,0,0,0,0,0,0,0,0,0,0,0,0,0,0,0,0,0,0,0,0,0
813,1.1928012,-1.2052096,-0.21652114,-0.049194176,0.1551286,-0.040726125,0.21517888,9.239374,3.146879,0,0,0,0,0,0,0,0,0,0,0,0,0,0,0,0,0,0,0,0,0
814,1.1992586,-1.2039114,-0.21180797,-0.06730367,0.17856441,0.038103443,-0.081702136,9.296835,4.2685623,0,0,0,0,0,0,0,0,0,0,0,0,0,0,0,0,0,0,0,0,0
815,1.1612176,-1.2248741,-0.2626718,0.2149914,-0.15379809,0.08284455,0.099060096,9.19987,3.6424787,0,0,0,0,0,0,0,0,0,0,0,0,0,0,0,0,0,0,0,0,0
816,1.157505,-1.2263186,-0.2604835,0.17983767,-0.100534864,0.062604524,0.394744,9.210644,2.555511,0,0,0,0,0,0,0,0,0,0,0,0,0,0,0,0,0,0,0,0,0
817,1.1575562,-1.226803,-0.25686184,-0.087543696,0.10506117,-0.04711771,0.2439093,9.271696,3.065476,1,0,0,0,0,0,0,0,0,0,0,0,0,0,0,0,0,0,0,0,0
818,1.1628964,-1.2261444,-0.25073674,-0.08115211,0.119974874,-0.017290307,-0.1810615,9.264513,3.6628294,1,0,0,0,0,0,0,0,0,0,0,0,0,0,0,0,0,0,0,0,0
819,1.1662239,-1.2253298,-0.24682504,0.107399695,-0.06751166,0.016798155,0.20320787,9.087342,3.680786,1,0,0,0,0,0,0,0,0,0,0,0,0,0,0,0,0,0,0,0,0
820,1.1434237,-1.2434977,-0.27951804,0.19049032,-0.101600125,-0.009833456,0.30855274,9.221417,3.2414498,1,0,0,0,0,0,0,0,0,0,0,0,0,0,0,0,0,0,0,0,0
821,1.1419326,-1.2441154,-0.27654853,0.03496171,-0.12397068,-0.12275148,0.37798458,9.471612,2.8679543,1,0,0,0,0,0,0,0,0,0,0,0,0,0,0,0,0,0,0,0,0
822,1.1495366,-1.2435093,-0.26769915,-0.14080691,0.12849699,-0.07587985,-0.57849896,9.391406,3.4545338,1,0,0,0,0,0,0,0,0,0,0,0,0,0,0,0,0,0,0,0,0
823,1.1565732,-1.242084,-0.26112902,0.09674705,0.09440853,0.1052151,-0.23014264,8.993968,3.7801452,1,0,0,0,0,0,0,0,0,0,0,0,0,0,0,0,0,0,0,0,0
824,1.0851369,-1.269502,-0.32533324,0.23949248,-0.038749527,0.079648755,-0.018255789,9.075371,2.5255835,1,0,0,0,0,0,0,0,0,0,0,0,0,0,0,0,0,0,0,0,0
825,1.0925033,-1.2708699,-0.31287616,-0.051324707,-0.015313709,0.106280364,-0.6275801,9.025093,2.0467432,1,0,0,0,0,0,0,0,0,0,0,0,0,0,0,0,0,0,0,0,0
826,1.0999742,-1.2697785,-0.30473435,-0.22176701,-0.007856858,0.20321943,-0.3067571,8.809615,3.2462382,1,0,0,0,0,0,0,0,0,0,0,0,0,0,0,0,0,0,0,0,0
827,1.1224321,-1.2669369,-0.28030828,-0.13867639,-0.03235794,0.38964072,-3.2995093,8.761731,2.530372,1,0,0,0,0,0,0,0,0,0,0,0,0,0,0,0,0,0,0,0,0
828,1.1533184,-1.2563132,-0.24564388,-0.51898164,0.70799816,2.2123098,-9.053973,8.25416,1.072303,1,0,0,0,0,0,0,0,0,0,0,0,0,0,0,0,0,0,0,0,0
829,0.5464559,-0.985599,-0.68200195,-1.3797153,0.83476466,5.150309,-9.368811,4.7370777,0.91668,1,0,0,0,0,0,0,0,0,0,0,0,0,0,0,0,0,0,0,0,0
830,0.58205223,-0.9601764,-0.6379386,-1.9485666,0.012380503,7.9881735,-8.04362,-2.3641245,0.3995324,1,0,0,0,0,0,0,0,0,0,0,0,0,0,0,0,0,0,0,0,0
831,0.609545,-0.9198042,-0.61985886,-2.014613,-1.850767,10.125093,-1.3123218,-8.873959,4.8156376,1,0,0,0,0,0,0,0,0,0,0,0,0,0,0,0,0,0,0,0,0
832,0.66636103,-0.89649487,-0.63255155,-0.0982022,-2.2406538,10.258251,15.613487,-4.1190743,5.110124,1,0,0,0,0,0,0,0,0,0,0,0,0,0,0,0,0,0,0,0,0
833,-0.17254923,-0.1986393,-1.1367122,1.6957031,0.2786966,4.895711,22.207119,2.129792,8.119636,1,0,0,0,0,0,0,0,0,0,0,0,0,0,0,0,0,0,0,0,0
834,-0.18788928,-0.19624813,-1.1443815,1.2951636,1.4707276,2.2069833,13.74601,1.0907085,0.6964134,1,0,0,0,0,0,0,0,0,0,0,0,0,0,0,0,0,0,0,0,0
835,-0.19078167,-0.19394594,-1.1458715,-0.26970977,-0.16764918,1.7659639,15.8660755,1.3744214,5.8259907,1,0,0,0,0,0,0,0,0,0,0,0,0,0,0,0,0,0,0,0,0
