nr,fusedX,fusedY,fusedZ,gyroX,gyroY,gyroZ,accX,accY,accZ,q,w,e,r,t,z,u,i,o,p,a,s,d,f,g,h,j,k,l,y
0,3.0509307,-0.54614675,-0.3302174,-0.25315902,0.29775524,-0.06621257,2.4022822,5.0269256,7.9252567,0,0,0,0,0,0,0,0,0,0,0,0,0,0,0,0,0,0,0,0,0
1,3.0549545,-0.53899616,-0.31693634,-0.21907057,0.24875309,-0.035319906,2.4130561,5.0496707,8.031798,0,0,0,0,0,0,0,0,0,0,0,0,0,0,0,0,0,0,0,0,0
2,3.0570328,-0.53241676,-0.30852127,-0.077390395,0.0026770094,-0.061951518,2.3591864,5.010166,8.429236,0,0,0,0,0,0,0,0,0,0,0,0,0,0,0,0,0,0,0,0,0
3,3.0582204,-0.5340961,-0.31052345,0.05576766,-0.08467467,-0.039580964,2.602198,4.8389807,7.8342767,0,0,0,0,0,0,0,0,0,0,0,0,0,0,0,0,0,0,0,0,0
4,3.0598705,-0.5328859,-0.30999976,-0.16367681,0.102811866,-0.07473469,2.6428995,4.8461637,7.9958854,0,0,0,0,0,0,0,0,0,0,0,0,0,0,0,0,0,0,0,0,0
5,3.0635588,-0.526639,-0.29884523,-0.19883054,0.29242894,-0.072604164,2.3747487,4.7252564,8.254459,0,0,0,0,0,0,0,0,0,0,0,0,0,0,0,0,0,0,0,0,0
6,3.0650501,-0.521226,-0.28918204,-0.15089364,0.20294672,-0.029993584,2.3124995,4.721665,8.355016,0,0,0,0,0,0,0,0,0,0,0,0,0,0,0,0,0,0,0,0,0
7,3.0643344,-0.51886857,-0.2858774,-0.041171405,0.06552761,0.009421199,2.365172,4.807856,8.2532625,0,0,0,0,0,0,0,0,0,0,0,0,0,0,0,0,0,0,0,0,0
8,3.0639293,-0.51853436,-0.28452522,-0.011344001,0.043157056,-1.6618126E-4,2.4034793,4.7743373,7.9851117,0,0,0,0,0,0,0,0,0,0,0,0,0,0,0,0,0,0,0,0,0
9,3.063341,-0.51846766,-0.28454474,-0.050758786,-0.017563015,-0.007623032,2.389114,4.8030677,8.139538,0,0,0,0,0,0,0,0,0,0,0,0,0,0,0,0,0,0,0,0,0
10,3.063769,-0.5172233,-0.28488415,-0.07099881,0.021851769,-0.034254644,2.398691,4.7875056,7.940819,0,0,0,0,0,0,0,0,0,0,0,0,0,0,0,0,0,0,0,0,0
11,3.065246,-0.51446795,-0.282089,-0.15943466,0.123036444,-0.05767608,2.2239141,4.7527895,8.289175,0,0,0,0,0,0,0,0,0,0,0,0,0,0,0,0,0,0,0,0,0
12,3.067492,-0.50972164,-0.27542245,-0.09871459,0.08149113,-0.022522353,2.1880012,4.7156796,8.548946,0,0,0,0,0,0,0,0,0,0,0,0,0,0,0,0,0,0,0,0,0
13,3.067771,-0.5075622,-0.2731365,-0.043320842,0.067642696,0.005174522,2.2610242,4.6989202,8.368184,0,0,0,0,0,0,0,0,0,0,0,0,0,0,0,0,0,0,0,0,0
14,3.0675125,-0.50628597,-0.26947758,-0.030537669,0.08468693,-0.007608651,2.1880012,4.6546273,8.331074,0,0,0,0,0,0,0,0,0,0,0,0,0,0,0,0,0,0,0,0,0
15,3.0674536,-0.50575024,-0.26886502,0.006746586,-0.02929637,-0.0054781223,2.1963809,4.673781,8.359804,0,0,0,0,0,0,0,0,0,0,0,0,0,0,0,0,0,0,0,0,0
16,3.0672386,-0.50664425,-0.2682329,0.0078118504,0.03994582,-0.0065433867,2.2011693,4.694132,7.9827175,0,0,0,0,0,0,0,0,0,0,0,0,0,0,0,0,0,0,0,0,0
17,3.0680618,-0.504261,-0.26307288,-0.077409305,0.13155855,-0.010804445,2.1353285,4.6953287,8.207772,0,0,0,0,0,0,0,0,0,0,0,0,0,0,0,0,0,0,0,0,0
18,3.0681477,-0.5029352,-0.2608228,-0.036929257,0.061251108,0.0019787287,2.1832128,4.6426563,8.26643,0,0,0,0,0,0,0,0,0,0,0,0,0,0,0,0,0,0,0,0,0
19,3.0680003,-0.502839,-0.26080865,-0.0326682,0.051663727,-0.004412858,2.1688476,4.5863924,8.149115,0,0,0,0,0,0,0,0,0,0,0,0,0,0,0,0,0,0,0,0,0
20,3.0680072,-0.5014343,-0.2583845,-0.0475819,0.07616481,0.02115349,2.1185691,4.6354737,8.368184,0,0,0,0,0,0,0,0,0,0,0,0,0,0,0,0,0,0,0,0,0
21,3.0669832,-0.50023556,-0.25660196,-0.008167116,0.031423703,0.029675603,2.1903954,4.6211085,8.305935,0,0,0,0,0,0,0,0,0,0,0,0,0,0,0,0,0,0,0,0,0
22,3.0660148,-0.49937063,-0.2555733,-0.036929257,0.080425866,0.010500844,2.1915925,4.6546273,8.231714,0,0,0,0,0,0,0,0,0,0,0,0,0,0,0,0,0,0,0,0,0
23,3.0663276,-0.4976599,-0.25157282,-0.050777692,0.109188005,-1.5180018E-4,2.1030068,4.6067433,8.341847,0,0,0,0,0,0,0,0,0,0,0,0,0,0,0,0,0,0,0,0,0
24,3.0660863,-0.49686217,-0.24979068,0.008877114,0.030358437,0.015827166,2.1269488,4.628291,8.350227,0,0,0,0,0,0,0,0,0,0,0,0,0,0,0,0,0,0,0,0,0
25,3.0659692,-0.49788505,-0.2504089,0.021660289,0.0037268277,0.011566108,2.2191257,4.578013,8.090456,0,0,0,0,0,0,0,0,0,0,0,0,0,0,0,0,0,0,0,0,0
26,3.0664523,-0.49657524,-0.24926606,-0.03373346,0.029293174,-0.004412858,2.1353285,4.595969,8.377761,0,0,0,0,0,0,0,0,0,0,0,0,0,0,0,0,0,0,0,0,0
27,3.065921,-0.4970664,-0.24893741,0.01952976,0.020771058,0.012631373,2.1125836,4.57921,8.212561,0,0,0,0,0,0,0,0,0,0,0,0,0,0,0,0,0,0,0,0,0
28,3.0663743,-0.49719092,-0.249157,-0.008160724,0.0047971522,0.0030391994,2.1760302,4.66181,8.182633,0,0,0,0,0,0,0,0,0,0,0,0,0,0,0,0,0,0,0,0,0
29,3.0667644,-0.49698085,-0.24887317,-0.018813368,5.360943E-4,-0.015070296,2.0670938,4.6510363,8.135946,0,0,0,0,0,0,0,0,0,0,0,0,0,0,0,0,0,0,0,0,0
30,3.0677533,-0.49640608,-0.24863012,-0.048640773,0.0037318876,-0.005482916,2.1125836,4.6570215,8.17545,0,0,0,0,0,0,0,0,0,0,0,0,0,0,0,0,0,0,0,0,0
31,3.0687375,-0.49453574,-0.24782285,-0.066750266,0.027167706,-0.019331353,2.149694,4.6570215,8.369381,0,0,0,0,0,0,0,0,0,0,0,0,0,0,0,0,0,0,0,0,0
32,3.07029,-0.493019,-0.24676046,-0.030531278,-0.014377608,-0.031049263,2.1305401,4.6330795,8.473529,0,0,0,0,0,0,0,0,0,0,0,0,0,0,0,0,0,0,0,0,0
33,3.0717554,-0.49246886,-0.24669033,-0.008160724,-0.014377608,-0.037440848,2.1305401,4.544494,8.529793,0,0,0,0,0,0,0,0,0,0,0,0,0,0,0,0,0,0,0,0,0
34,3.073061,-0.49182135,-0.2452545,-0.011356518,0.03782035,-0.029983997,2.1365256,4.4451346,8.523807,0,0,0,0,0,0,0,0,0,0,0,0,0,0,0,0,0,0,0,0,0
35,3.0740886,-0.49186605,-0.24347112,-0.0038996667,0.03568982,-0.027853468,2.0790648,4.4092216,8.249671,0,0,0,0,0,0,0,0,0,0,0,0,0,0,0,0,0,0,0,0,0
36,3.075981,-0.49044752,-0.24207811,-0.04544498,0.02823297,-0.026788205,2.1353285,4.4774566,8.268825,0,0,0,0,0,0,0,0,0,0,0,0,0,0,0,0,0,0,0,0,0
37,3.077741,-0.48970214,-0.24174853,-0.028400749,-0.015442872,-0.03957138,2.0347722,4.4906244,8.319102,0,0,0,0,0,0,0,0,0,0,0,0,0,0,0,0,0,0,0,0,0
38,3.0783806,-0.49005377,-0.24211606,-0.019878633,0.019710854,-0.027853468,2.1329343,4.6091375,8.013842,0,0,0,0,0,0,0,0,0,0,0,0,0,0,0,0,0,0,0,0,0
39,3.0804312,-0.48952833,-0.24024126,-0.13173139,0.1230415,-0.055550344,2.1724389,4.685752,8.236503,0,0,0,0,0,0,0,0,0,0,0,0,0,0,0,0,0,0,0,0,0
40,3.0844116,-0.4853129,-0.23548836,-0.09125135,-0.016508136,-0.06513772,2.2993314,4.7132854,8.733299,0,0,0,0,0,0,0,0,0,0,0,0,0,0,0,0,0,0,0,0,0
41,3.0883045,-0.4857515,-0.23836337,0.039776176,-0.12623037,-0.0928346,2.4262242,4.6474447,8.392126,0,0,0,0,0,0,0,0,0,0,0,0,0,0,0,0,0,0,0,0,0
42,3.0924942,-0.4870669,-0.24068856,-0.014552311,-0.081489265,-0.12692305,2.2442648,4.61632,8.418462,0,0,0,0,0,0,0,0,0,0,0,0,0,0,0,0,0,0,0,0,0
43,3.0965834,-0.48760557,-0.24022494,-7.0387346E-4,-0.059118714,-0.115205154,1.9593548,4.484639,8.3729725,0,0,0,0,0,0,0,0,0,0,0,0,0,0,0,0,0,0,0,0,0
44,3.098763,-0.4889259,-0.24082226,0.025927737,-0.07509768,-0.08111669,1.8216882,4.482245,8.207772,0,0,0,0,0,0,0,0,0,0,0,0,0,0,0,0,0,0,0,0,0
45,3.100113,-0.48997182,-0.24266058,0.002479403,-0.103870206,-0.06086708,1.7773955,4.448726,8.107216,0,0,0,0,0,0,0,0,0,0,0,0,0,0,0,0,0,0,0,0,0
46,3.1013887,-0.48962623,-0.2423233,-0.02947853,-0.055933308,-0.06725866,1.6660651,4.568436,8.335862,0,0,0,0,0,0,0,0,0,0,0,0,0,0,0,0,0,0,0,0,0
47,3.0995092,-0.48965445,-0.2411427,-0.026282737,0.0037215012,-0.04701864,1.534384,4.5013986,8.2772045,0,0,0,0,0,0,0,0,0,0,0,0,0,0,0,0,0,0,0,0,0
48,3.1003726,-0.4885836,-0.23982908,-0.05824067,-0.058063835,-0.02997441,1.8336592,4.4810476,8.529793,0,0,0,0,0,0,0,0,0,0,0,0,0,0,0,0,0,0,0,0,0
49,3.101181,-0.4863127,-0.24042764,-0.049718555,-0.010126936,-0.044888113,1.8671781,4.494216,8.784775,0,0,0,0,0,0,0,0,0,0,0,0,0,0,0,0,0,0,0,0,0
50,3.102892,-0.48515815,-0.23899834,-0.017760621,0.03994049,-0.0033427998,2.009633,4.384083,8.450784,0,0,0,0,0,0,0,0,0,0,0,0,0,0,0,0,0,0,0,0,0
51,3.1036909,-0.48362347,-0.2380568,-0.06889331,0.029287847,-0.0033427998,2.1101894,4.4810476,8.361001,0,0,0,0,0,0,0,0,0,0,0,0,0,0,0,0,0,0,0,0,0
52,3.104192,-0.48237178,-0.2359506,-0.043326966,0.054854196,0.0062445803,1.9126679,4.612729,8.205379,0,0,0,0,0,0,0,0,0,0,0,0,0,0,0,0,0,0,0,0,0
53,3.1035485,-0.4820511,-0.23571604,-0.020956414,-0.0058658784,0.028615134,1.9425954,4.67019,7.993491,0,0,0,0,0,0,0,0,0,0,0,0,0,0,0,0,0,0,0,0,0
54,3.104364,-0.480223,-0.23802704,-0.07848069,-0.055933308,0.016897224,2.1544824,4.6474447,8.080879,0,0,0,0,0,0,0,0,0,0,0,0,0,0,0,0,0,0,0,0,0
55,3.1059232,-0.4770021,-0.23861232,-0.10404704,-0.029301696,-0.0054733288,2.0898387,4.5289316,8.3729725,0,0,0,0,0,0,0,0,0,0,0,0,0,0,0,0,0,0,0,0,0
56,3.1063297,-0.47463074,-0.24084757,-0.06569752,-0.08469544,-1.4700649E-4,1.9928737,4.472668,8.728511,0,0,0,0,0,0,0,0,0,0,0,0,0,0,0,0,0,0,0,0,0
57,3.1067877,-0.47436193,-0.24094303,-7.163903E-4,-0.06978174,0.008375109,2.1592708,4.412813,8.613589,0,0,0,0,0,0,0,0,0,0,0,0,0,0,0,0,0,0,0,0,0
58,3.1072292,-0.4738289,-0.24281146,-0.05611014,0.027157318,-0.018256502,2.2239141,4.351761,8.689007,0,0,0,0,0,0,0,0,0,0,0,0,0,0,0,0,0,0,0,0,0
59,3.1089437,-0.47147518,-0.24087444,-0.008173241,0.042071022,-0.02997441,2.092233,4.238036,8.698584,0,0,0,0,0,0,0,0,0,0,0,0,0,0,0,0,0,0,0,0,0
60,3.110033,-0.47188592,-0.23878588,-0.009238506,0.06444158,-0.0118649155,2.0287867,4.208109,8.244883,0,0,0,0,0,0,0,0,0,0,0,0,0,0,0,0,0,0,0,0,0
61,3.1105921,-0.4702832,-0.23556371,-0.07317062,0.07401537,-0.01717872,1.8791491,4.235642,8.344242,0,0,0,0,0,0,0,0,0,0,0,0,0,0,0,0,0,0,0,0,0
62,3.110675,-0.46785253,-0.23286277,-0.050800063,0.050579555,0.014779212,1.8336592,4.2392335,8.41966,0,0,0,0,0,0,0,0,0,0,0,0,0,0,0,0,0,0,0,0,0
63,3.109501,-0.4668403,-0.23303117,-0.025233718,0.010099506,0.037149765,1.9509751,4.2943,8.244883,0,0,0,0,0,0,0,0,0,0,0,0,0,0,0,0,0,0,0,0,0
64,3.1097445,-0.46360666,-0.23242743,-0.10832434,0.04205744,0.029692914,2.117372,4.352958,8.339454,0,0,0,0,0,0,0,0,0,0,0,0,0,0,0,0,0,0,0,0,0
65,3.1104214,-0.45989677,-0.23211156,-0.10406329,0.005838448,0.0115834195,2.1089923,4.3350015,8.746468,0,0,0,0,0,0,0,0,0,0,0,0,0,0,0,0,0,0,0,0,0
66,3.1111045,-0.45976126,-0.23251826,-0.052930593,0.012230035,0.008387626,2.2298996,4.3469725,8.644714,0,0,0,0,0,0,0,0,0,0,0,0,0,0,0,0,0,0,0,0,0
67,3.1119037,-0.45780304,-0.23186335,-0.09341064,0.081472225,-0.032092422,2.1592708,4.303877,8.6674595,0,0,0,0,0,0,0,0,0,0,0,0,0,0,0,0,0,0,0,0,0
68,3.1137786,-0.45501056,-0.22756933,-0.06145271,0.09745119,-0.034222953,2.0132244,4.3050737,8.637531,0,0,0,0,0,0,0,0,0,0,0,0,0,0,0,0,0,0,0,0,0
69,3.1149824,-0.45374095,-0.22360031,-0.07317062,0.0910596,-0.025700836,1.9653404,4.3110595,8.560917,0,0,0,0,0,0,0,0,0,0,0,0,0,0,0,0,0,0,0,0,0
70,3.1160634,-0.4509974,-0.2202357,-0.07423588,0.092124864,-0.020374514,1.9126679,4.28592,8.67105,0,0,0,0,0,0,0,0,0,0,0,0,0,0,0,0,0,0,0,0,0
71,3.1162362,-0.4502163,-0.21634963,-0.006058958,0.08040696,-0.023570307,1.8097172,4.259584,8.575282,0,0,0,0,0,0,0,0,0,0,0,0,0,0,0,0,0,0,0,0,0
72,3.1168349,-0.44893306,-0.21484226,-0.0497348,0.029274266,-0.020374514,1.8552071,4.209306,8.67105,0,0,0,0,0,0,0,0,0,0,0,0,0,0,0,0,0,0,0,0,0
73,3.1173503,-0.44748607,-0.21256419,-0.03801689,0.052710082,-0.023570307,1.8803462,4.138677,8.747664,0,0,0,0,0,0,0,0,0,0,0,0,0,0,0,0,0,0,0,0,0
74,3.1175466,-0.44786268,-0.2118202,0.016311595,0.007968977,-0.022505043,1.795352,4.106355,8.71654,0,0,0,0,0,0,0,0,0,0,0,0,0,0,0,0,0,0,0,0,0
75,3.1172361,-0.44886655,-0.21227223,0.03442109,-0.015466841,-0.0065260762,1.8037317,4.1111436,8.533383,0,0,0,0,0,0,0,0,0,0,0,0,0,0,0,0,0,0,0,0,0
76,3.11672,-0.44879016,-0.21204813,0.005658951,0.01116477,-0.0065260762,1.7414825,4.1590276,8.544158,0,0,0,0,0,0,0,0,0,0,0,0,0,0,0,0,0,0,0,0,0
77,3.116291,-0.44889283,-0.21124028,3.326288E-4,0.03779638,0.014779212,1.7307086,4.161422,8.504653,0,0,0,0,0,0,0,0,0,0,0,0,0,0,0,0,0,0,0,0,0
78,3.115597,-0.44838488,-0.21056119,-0.015655126,0.004765993,0.020112192,1.8839375,4.2164884,8.631546,0,0,0,0,0,0,0,0,0,0,0,0,0,0,0,0,0,0,0,0,0
79,3.1153138,-0.4485302,-0.21140677,0.014172278,-0.005886651,0.009459548,1.9437925,4.197335,8.565705,0,0,0,0,0,0,0,0,0,0,0,0,0,0,0,0,0,0,0,0,0
80,3.1152186,-0.44863933,-0.21130557,-0.007133011,0.036723927,9.374327E-4,1.9294273,4.2416277,8.594436,0,0,0,0,0,0,0,0,0,0,0,0,0,0,0,0,0,0,0,0,0
81,3.1156352,-0.44777462,-0.20952657,-0.029503563,0.0495071,-0.0118457405,1.8444332,4.2655697,8.655488,0,0,0,0,0,0,0,0,0,0,0,0,0,0,0,0,0,0,0,0,0
82,3.1157565,-0.4477058,-0.20791338,-0.0039372174,0.0495071,-0.006519418,1.8085201,4.2188826,8.565705,0,0,0,0,0,0,0,0,0,0,0,0,0,0,0,0,0,0,0,0,0
83,3.116048,-0.44710147,-0.20508265,-0.026307771,0.093182944,-0.0054541538,1.8827404,4.2284594,8.593239,0,0,0,0,0,0,0,0,0,0,0,0,0,0,0,0,0,0,0,0,0
84,3.1159778,-0.44694006,-0.20026861,-0.012459333,0.13472825,-0.012911005,1.7091607,4.2524014,8.526201,0,0,0,0,0,0,0,0,0,0,0,0,0,0,0,0,0,0,0,0,0
85,3.1159382,-0.44693214,-0.200312,-0.041221473,0.14431563,-0.012911005,1.7726071,4.2212768,8.636334,0,0,0,0,0,0,0,0,0,0,0,0,0,0,0,0,0,0,0,0,0
86,3.116559,-0.44577432,-0.19546454,-0.024177242,0.1933178,-0.051260523,1.7091607,4.2176857,8.64232,0,0,0,0,0,0,0,0,0,0,0,0,0,0,0,0,0,0,0,0,0
87,3.1183841,-0.4449305,-0.1878671,-0.058265705,0.24018943,-0.046999466,1.6433202,4.0524855,8.520216,0,0,0,0,0,0,0,0,0,0,0,0,0,0,0,0,0,0,0,0,0
88,3.1195133,-0.44207188,-0.1784042,-0.07104888,0.24551575,-0.02143312,1.5020623,4.070442,8.772804,0,0,0,0,0,0,0,0,0,0,0,0,0,0,0,0,0,0,0,0,0
89,3.1197286,-0.44102043,-0.16996275,-0.0039372174,0.17946936,-0.012911005,1.3907319,4.041712,8.6040125,0,0,0,0,0,0,0,0,0,0,0,0,0,0,0,0,0,0,0,0,0
90,3.1197143,-0.44063777,-0.1651041,-0.05293938,0.26469052,-0.0043888893,1.4302362,4.0632596,8.181437,0,0,0,0,0,0,0,0,0,0,0,0,0,0,0,0,0,0,0,0,0
91,3.1196434,-0.4361433,-0.14110792,-0.17118374,0.9038492,-0.009715212,1.2805986,4.1207204,8.855404,0,0,0,0,0,0,0,0,0,0,0,0,0,0,0,0,0,0,0,0,0
92,3.116421,-0.4306082,-0.106534064,-0.12963842,1.0082451,0.06911436,0.7826047,4.0967784,9.190592,0,0,0,0,0,0,0,0,0,0,0,0,0,0,0,0,0,0,0,0,0
93,3.1106958,-0.43041465,-0.09214169,0.006715427,0.47348234,0.10639861,0.75866264,4.071639,8.909273,0,0,0,0,0,0,0,0,0,0,0,0,0,0,0,0,0,0,0,0,0
94,3.1065729,-0.43609378,-0.070611045,0.16757035,0.669491,0.048874334,0.61141926,4.2452188,8.8506155,0,0,0,0,0,0,0,0,0,0,0,0,0,0,0,0,0,0,0,0,0
95,3.1049557,-0.43600413,-0.0703727,-0.023125825,0.8590966,0.09469136,0.50607437,3.973477,8.612392,0,0,0,0,0,0,0,0,0,0,0,0,0,0,0,0,0,0,0,0,0
96,3.1003106,-0.4330845,-0.04427816,-0.04123532,0.4702751,0.051015515,0.41389763,4.1793785,9.605987,0,0,0,0,0,0,0,0,0,0,0,0,0,0,0,0,0,0,0,0,0
97,3.096514,-0.43537232,-0.03350152,0.33054197,0.034581944,0.06699448,0.0032920274,4.226065,9.0816555,0,0,0,0,0,0,0,0,0,0,0,0,0,0,0,0,0,0,0,0,0
98,3.0921779,-0.4487616,-0.040901575,0.3294767,-0.22321205,0.10640927,0.47973818,4.175787,8.095244,0,0,0,0,0,0,0,0,0,0,0,0,0,0,0,0,0,0,0,0,0
99,3.0894396,-0.45566356,-0.047137804,0.068486914,-0.0058981027,0.016927052,0.47375265,4.306271,8.2772045,0,0,0,0,0,0,0,0,0,0,0,0,0,0,0,0,0,0,0,0,0
100,3.089661,-0.45576823,-0.045139015,0.02161528,0.009015599,0.008404937,0.2534861,4.283526,8.660276,0,0,0,0,0,0,0,0,0,0,0,0,0,0,0,0,0,0,0,0,0
101,3.0893612,-0.45889178,-0.051100206,0.08872694,-0.17953621,0.02864496,0.49290627,4.3685203,8.571691,0,0,0,0,0,0,0,0,0,0,0,0,0,0,0,0,0,0,0,0,0
102,3.0904672,-0.4600169,-0.05691013,0.013093165,-0.15716565,-0.0065087657,0.50368017,4.2631755,8.505851,0,0,0,0,0,0,0,0,0,0,0,0,0,0,0,0,0,0,0,0,0
103,3.092097,-0.45845154,-0.059614584,-0.042300586,-0.083662406,-0.00757403,0.5527613,4.2643723,8.800337,0,0,0,0,0,0,0,0,0,0,0,0,0,0,0,0,0,0,0,0,0
104,3.0931296,-0.4583945,-0.05956348,0.008832107,-0.0058981027,-0.0129003525,0.5000889,4.2966943,8.754848,0,0,0,0,0,0,0,0,0,0,0,0,0,0,0,0,0,0,0,0,0
105,3.0946043,-0.45896018,-0.059511114,-0.0039510657,-0.015485482,-0.013965617,0.49290627,4.384083,8.59683,0,0,0,0,0,0,0,0,0,0,0,0,0,0,0,0,0,0,0,0,0
106,3.096179,-0.45896998,-0.059520815,-0.015668975,-0.047443416,-0.05551093,0.38037878,4.3326073,8.593239,0,0,0,0,0,0,0,0,0,0,0,0,0,0,0,0,0,0,0,0,0
107,3.0985315,-0.45833683,-0.059983414,-0.032713205,-0.07833608,-0.06722884,0.27024552,4.2296567,8.626758,0,0,0,0,0,0,0,0,0,0,0,0,0,0,0,0,0,0,0,0,0
108,3.0998828,-0.45693493,-0.06035362,-0.04336585,-0.0719445,-0.03953196,0.13018471,4.2057147,8.787169,0,0,0,0,0,0,0,0,0,0,0,0,0,0,0,0,0,0,0,0,0
109,3.0996337,-0.4550939,-0.061285127,-0.022060562,-0.044247624,0.0073396717,0.23193829,4.172196,9.007436,0,0,0,0,0,0,0,0,0,0,0,0,0,0,0,0,0,0,0,0,0
110,3.0985215,-0.45457932,-0.06256666,0.007766843,-0.044247624,0.035036545,0.32650927,4.115932,8.936807,0,0,0,0,0,0,0,0,0,0,0,0,0,0,0,0,0,0,0,0,0
111,3.0959032,-0.45512438,-0.063647084,0.03118029,0.0058008973,0.080860496,0.45579615,4.1829696,8.782381,0,0,0,0,0,0,0,0,0,0,0,0,0,0,0,0,0,0,0,0,0
112,3.0935295,-0.4560104,-0.064772725,0.032245554,0.01112722,0.08618682,0.58388597,4.255993,8.666262,0,0,0,0,0,0,0,0,0,0,0,0,0,0,0,0,0,0,0,0,0
113,3.092901,-0.45692962,-0.065938175,0.024788704,-0.004851747,0.0478373,0.643741,4.3122563,8.540566,0,0,0,0,0,0,0,0,0,0,0,0,0,0,0,0,0,0,0,0,0
114,3.0940182,-0.45705813,-0.0660824,0.014136059,-0.037874945,0.02440148,0.63655835,4.351761,8.686613,0,0,0,0,0,0,0,0,0,0,0,0,0,0,0,0,0,0,0,0,0
115,3.0945485,-0.4575367,-0.068251185,0.01946238,-0.011243333,0.015879365,0.6940192,4.3002853,8.728511,0,0,0,0,0,0,0,0,0,0,0,0,0,0,0,0,0,0,0,0,0
116,3.0952919,-0.45805863,-0.06853077,0.0024181502,0.0058008973,0.009487778,0.6964134,4.2512045,8.739285,0,0,0,0,0,0,0,0,0,0,0,0,0,0,0,0,0,0,0,0,0
117,3.0962605,-0.45786303,-0.06917826,0.03118029,-0.0144391265,0.00522672,0.679654,4.2188826,8.779986,0,0,0,0,0,0,0,0,0,0,0,0,0,0,0,0,0,0,0,0,0
118,3.0962543,-0.45971552,-0.06932598,0.042898197,0.024975657,0.025466744,0.62339026,4.2535987,8.435222,0,0,0,0,0,0,0,0,0,0,0,0,0,0,0,0,0,0,0,0,0
119,3.0961492,-0.45986477,-0.07053435,-0.017821874,-0.049592853,0.016944628,0.7023989,4.3326073,8.577677,0,0,0,0,0,0,0,0,0,0,0,0,0,0,0,0,0,0,0,0,0
120,3.0971572,-0.45982602,-0.07381609,0.0013528859,-0.09539922,-0.006491189,0.703596,4.3697176,8.702175,0,0,0,0,0,0,0,0,0,0,0,0,0,0,0,0,0,0,0,0,0
121,3.0984256,-0.45996985,-0.074798435,-0.01462608,-0.028287563,-0.016078569,0.6485294,4.342184,8.564508,0,0,0,0,0,0,0,0,0,0,0,0,0,0,0,0,0,0,0,0,0
122,3.1002254,-0.45849,-0.074594684,-0.04125769,-0.0059170113,-0.025665948,0.70599025,4.3709145,9.0098295,0,0,0,0,0,0,0,0,0,0,0,0,0,0,0,0,0,0,0,0,0
123,3.1004803,-0.4582171,-0.07439437,0.04076767,-0.04426653,-0.041644916,0.5814917,4.295497,8.991874,0,0,0,0,0,0,0,0,0,0,0,0,0,0,0,0,0,0,0,0,0
124,3.1022801,-0.45976704,-0.075245745,0.0578119,-0.025091771,-0.012882776,0.62458736,4.2931027,8.82787,0,0,0,0,0,0,0,0,0,0,0,0,0,0,0,0,0,0,0,0,0
125,3.1030746,-0.46134824,-0.075431146,0.056746636,0.008996691,-0.018209098,0.6736685,4.258387,8.751256,0,0,0,0,0,0,0,0,0,0,0,0,0,0,0,0,0,0,0,0,0
126,3.1039307,-0.46334508,-0.07495709,0.06739928,-0.021895979,-0.018209098,0.5790975,4.321833,8.581267,0,0,0,0,0,0,0,0,0,0,0,0,0,0,0,0,0,0,0,0,0
127,3.1044908,-0.4660952,-0.07522618,0.038637143,-0.0144391265,-0.016078569,0.5515642,4.3254247,8.297555,0,0,0,0,0,0,0,0,0,0,0,0,0,0,0,0,0,0,0,0,0
128,3.1056068,-0.46594837,-0.0753549,-0.013557088,-0.03574122,-0.027799407,0.61501056,4.297891,8.593239,0,0,0,0,0,0,0,0,0,0,0,0,0,0,0,0,0,0,0,0,0
129,3.1067183,-0.46664745,-0.07584717,0.029053489,-0.04106754,-0.0309952,0.52043957,4.330213,8.618378,0,0,0,0,0,0,0,0,0,0,0,0,0,0,0,0,0,0,0,0,0
130,3.1072097,-0.4673968,-0.075708084,0.014139787,0.008999887,-0.0022330605,0.62219316,4.3086653,8.538172,0,0,0,0,0,0,0,0,0,0,0,0,0,0,0,0,0,0,0,0,0
131,3.1082015,-0.46634984,-0.07482591,-0.02847079,0.0079346225,-0.022473084,0.573112,4.360141,8.805125,0,0,0,0,0,0,0,0,0,0,0,0,0,0,0,0,0,0,0,0,0
132,3.1083775,-0.46670055,-0.0746997,0.015205052,-0.002718022,-0.003298325,0.5814917,4.363732,8.820688,0,0,0,0,0,0,0,0,0,0,0,0,0,0,0,0,0,0,0,0,0
133,3.1088493,-0.46675706,-0.07474567,0.0407714,0.017522002,-0.0043635895,0.6664859,4.396054,8.638729,0,0,0,0,0,0,0,0,0,0,0,0,0,0,0,0,0,0,0,0,0
134,3.108813,-0.46827006,-0.0736962,0.016270317,0.010065151,-0.005428854,0.51445407,4.434361,8.535778,0,0,0,0,0,0,0,0,0,0,0,0,0,0,0,0,0,0,0,0,0
135,3.1090727,-0.46897563,-0.07344909,-0.0029044435,-0.0059138155,-0.008624647,0.54917,4.4331636,8.582465,0,0,0,0,0,0,0,0,0,0,0,0,0,0,0,0,0,0,0,0,0
136,3.1092453,-0.46890804,-0.07299901,0.010943994,-0.002718022,0.0030932615,0.51924247,4.354155,8.680627,0,0,0,0,0,0,0,0,0,0,0,0,0,0,0,0,0,0,0,0,0
137,3.1091993,-0.4694451,-0.07385468,0.020531373,-0.030414898,0.015876435,0.6724714,4.3697176,8.752453,0,0,0,0,0,0,0,0,0,0,0,0,0,0,0,0,0,0,0,0,0
138,3.109412,-0.46936446,-0.075549774,0.010943994,-0.029349633,0.004158526,0.6964134,4.33979,8.751256,0,0,0,0,0,0,0,0,0,0,0,0,0,0,0,0,0,0,0,0,0
139,3.1098552,-0.46976358,-0.07547117,0.014139787,0.015391473,0.004158526,0.72514385,4.386477,8.666262,0,0,0,0,0,0,0,0,0,0,0,0,0,0,0,0,0,0,0,0,0
140,3.1104379,-0.470743,-0.07496707,0.02479243,0.024978854,0.002027997,0.72394675,4.384083,8.457967,0,0,0,0,0,0,0,0,0,0,0,0,0,0,0,0,0,0,0,0,0
141,3.111782,-0.47052315,-0.074866444,-0.00929603,-0.00697908,-0.022473084,0.655712,4.309862,8.412477,0,0,0,0,0,0,0,0,0,0,0,0,0,0,0,0,0,0,0,0,0
142,3.1116142,-0.47063646,-0.07456319,2.9134983E-4,0.0036735644,-0.0043635895,0.52043957,4.3936596,8.46874,0,0,0,0,0,0,0,0,0,0,0,0,0,0,0,0,0,0,0,0,0
143,3.112178,-0.47063428,-0.0745291,-0.03805817,-0.04000228,0.007354319,0.6736685,4.3493667,8.503456,0,0,0,0,0,0,0,0,0,0,0,0,0,0,0,0,0,0,0,0,0
144,3.1129866,-0.46849176,-0.07660473,-0.048710816,-0.060242303,-0.007559383,0.73831195,4.3170447,8.853009,0,0,0,0,0,0,0,0,0,0,0,0,0,0,0,0,0,0,0,0,0
145,3.1139152,-0.4675829,-0.07856207,0.009848636,-0.03576625,-0.002209891,0.74070615,4.3685203,8.584859,0,0,0,0,0,0,0,0,0,0,0,0,0,0,0,0,0,0,0,0,0
146,3.1146047,-0.4675304,-0.078334965,-0.04128406,0.017496968,-0.022449914,0.6760627,4.41401,8.536975,0,0,0,0,0,0,0,0,0,0,0,0,0,0,0,0,0,0,0,0,0
147,3.1155303,-0.46569172,-0.07684773,-0.046610378,-0.0027430558,-0.020319385,0.5348048,4.3924623,8.751256,0,0,0,0,0,0,0,0,0,0,0,0,0,0,0,0,0,0,0,0,0
148,3.1157334,-0.46553332,-0.0779532,-0.0018692728,-0.047484163,0.0031164312,0.61261636,4.390068,8.711752,0,0,0,0,0,0,0,0,0,0,0,0,0,0,0,0,0,0,0,0,0
149,3.1158614,-0.46473765,-0.078237355,-0.021044033,-0.0038083203,0.00524696,0.63775545,4.3733087,8.789563,0,0,0,0,0,0,0,0,0,0,0,0,0,0,0,0,0,0,0,0,0
150,3.1160417,-0.4647515,-0.07812399,0.0109139,-0.02085255,0.013769075,0.63655835,4.4152074,8.748862,0,0,0,0,0,0,0,0,0,0,0,0,0,0,0,0,0,0,0,0,0
151,3.1167045,-0.4648024,-0.078304514,0.0013265206,-0.011265172,0.008442753,0.75028294,4.3493667,8.587254,0,0,0,0,0,0,0,0,0,0,0,0,0,0,0,0,0,0,0,0,0
152,3.1164842,-0.46464342,-0.07834939,-0.029566148,0.027084349,-0.010732006,0.58987147,4.372112,8.711752,0,0,0,0,0,0,0,0,0,0,0,0,0,0,0,0,0,0,0,0,0
153,3.117254,-0.46359518,-0.07741195,0.004522314,-0.02298308,0.007377489,0.6688801,4.345775,8.760833,0,0,0,0,0,0,0,0,0,0,0,0,0,0,0,0,0,0,0,0,0
154,3.1175616,-0.46413848,-0.07884082,0.016240222,-0.008069378,0.0031164312,0.798167,4.3385925,8.594436,0,0,0,0,0,0,0,0,0,0,0,0,0,0,0,0,0,0,0,0,0
155,3.1183712,-0.46411788,-0.07835772,-0.013587181,0.006844324,-0.020319385,0.6976105,4.2966943,8.582465,0,0,0,0,0,0,0,0,0,0,0,0,0,0,0,0,0,0,0,0,0
156,3.1196303,-0.4631588,-0.07834098,-0.023174562,-0.027244138,-0.02351518,0.6808511,4.2775407,8.686613,0,0,0,0,0,0,0,0,0,0,0,0,0,0,0,0,0,0,0,0,0
157,3.1205812,-0.462473,-0.078677654,-0.01571771,-0.0038083203,-0.009666742,0.6760627,4.267964,8.685415,0,0,0,0,0,0,0,0,0,0,0,0,0,0,0,0,0,0,0,0,0
158,3.1210625,-0.46167684,-0.0781731,-0.02530509,0.008974853,-0.006470949,0.6461352,4.3014827,8.586056,0,0,0,0,0,0,0,0,0,0,0,0,0,0,0,0,0,0,0,0,0
159,3.1212065,-0.46074194,-0.07829933,-0.028500883,-0.016591493,-0.002209891,0.60543376,4.3326073,8.71654,0,0,0,0,0,0,0,0,0,0,0,0,0,0,0,0,0,0,0,0,0
160,3.1210964,-0.46051714,-0.07906855,-0.0071955947,-0.019787287,0.009508017,0.667683,4.330213,8.65908,0,0,0,0,0,0,0,0,0,0,0,0,0,0,0,0,0,0,0,0,0
161,3.1217408,-0.46054012,-0.079278894,-0.030633809,-0.008071508,0.009509882,0.786196,4.372112,8.752453,0,0,0,0,0,0,0,0,0,0,0,0,0,0,0,0,0,0,0,0,0
162,3.1220043,-0.45939812,-0.07930542,-0.0018716695,0.017494837,-0.008599614,0.7047931,4.387674,8.882937,0,0,0,0,0,0,0,0,0,0,0,0,0,0,0,0,0,0,0,0,0
163,3.1223938,-0.46017265,-0.078593105,0.018368354,0.011103251,0.0020530308,0.6964134,4.3673234,8.655488,0,0,0,0,0,0,0,0,0,0,0,0,0,0,0,0,0,0,0,0,0
164,3.1224751,-0.460473,-0.07853911,-0.0018716695,0.011103251,-0.017121729,0.75028294,4.3469725,8.727314,0,0,0,0,0,0,0,0,0,0,0,0,0,0,0,0,0,0,0,0,0
165,3.1227946,-0.46095055,-0.077542275,0.03221679,0.010037987,-0.0064690844,0.6569091,4.3170447,8.517821,0,0,0,0,0,0,0,0,0,0,0,0,0,0,0,0,0,0,0,0,0
166,3.1231902,-0.4614855,-0.07831226,-0.0040021986,-0.026181003,-0.009664878,0.75028294,4.247613,8.425645,0,0,0,0,0,0,0,0,0,0,0,0,0,0,0,0,0,0,0,0,0
167,3.1238647,-0.459934,-0.07868147,-0.025307488,-0.011267302,-0.016056465,0.6664859,4.273949,8.757241,0,0,0,0,0,0,0,0,0,0,0,0,0,0,0,0,0,0,0,0,0
168,3.1237683,-0.45992333,-0.07885893,-0.007197992,-0.011267302,-7.7497985E-5,0.70718735,4.267964,8.583662,0,0,0,0,0,0,0,0,0,0,0,0,0,0,0,0,0,0,0,0,0
169,3.1242092,-0.4591171,-0.07936405,-0.025307488,-0.027246268,-0.018186994,0.6628946,4.3290157,8.740482,0,0,0,0,0,0,0,0,0,0,0,0,0,0,0,0,0,0,0,0,0
170,3.1239624,-0.4591071,-0.07932632,-0.007197992,-0.011267302,9.877664E-4,0.6784569,4.327819,8.739285,0,0,0,0,0,0,0,0,0,0,0,0,0,0,0,0,0,0,0,0,0
171,3.1239142,-0.45903298,-0.07969567,-0.0040021986,-0.013397831,9.877664E-4,0.73112935,4.3565493,8.678233,0,0,0,0,0,0,0,0,0,0,0,0,0,0,0,0,0,0,0,0,0
172,3.1239276,-0.4586918,-0.080089785,-0.026372751,-0.009136773,-0.012860671,0.70838445,4.3230305,8.766818,0,0,0,0,0,0,0,0,0,0,0,0,0,0,0,0,0,0,0,0,0
173,3.1242032,-0.45832625,-0.0799265,0.006650446,0.0025811356,-0.0011427624,0.6485294,4.3361983,8.715343,0,0,0,0,0,0,0,0,0,0,0,0,0,0,0,0,0,0,0,0,0
174,3.1238096,-0.4588101,-0.07996716,0.009846239,-0.008071508,0.0020530308,0.6724714,4.345775,8.635138,0,0,0,0,0,0,0,0,0,0,0,0,0,0,0,0,0,0,0,0,0
175,3.1238563,-0.45893776,-0.08003873,-0.014654843,-0.012332566,-0.013925935,0.63057286,4.3002853,8.662671,0,0,0,0,0,0,0,0,0,0,0,0,0,0,0,0,0,0,0,0,0
176,3.1238837,-0.45854768,-0.07976884,-0.0029369341,0.0015158713,-0.009664878,0.61022216,4.2404304,8.686613,0,0,0,0,0,0,0,0,0,0,0,0,0,0,0,0,0,0,0,0,0
177,3.1234686,-0.45830217,-0.07973028,-0.0040021986,4.5060687E-4,0.0041835597,0.655712,4.238036,8.673445,0,0,0,0,0,0,0,0,0,0,0,0,0,0,0,0,0,0,0,0,0
178,3.1228795,-0.45768782,-0.079475686,-0.012541891,0.008958075,0.009523464,0.6521207,4.2212768,8.689007,0,0,0,0,0,0,0,0,0,0,0,0,0,0,0,0,0,0,0,0,0
179,3.1226223,-0.4575184,-0.079389594,-0.019998742,0.012153869,0.014849786,0.6616975,4.247613,8.785972,0,0,0,0,0,0,0,0,0,0,0,0,0,0,0,0,0,0,0,0,0
180,3.1221707,-0.45692503,-0.07951357,2.412824E-4,4.3595946E-4,0.024437167,0.75985974,4.2847233,8.741679,0,0,0,0,0,0,0,0,0,0,0,0,0,0,0,0,0,0,0,0,0
181,3.1217597,-0.45695618,-0.08017841,0.0034370758,0.01002334,0.012719257,0.8268974,4.3326073,8.718934,0,0,0,0,0,0,0,0,0,0,0,0,0,0,0,0,0,0,0,0,0
182,3.1218326,-0.4569896,-0.07983875,-0.009346098,0.0142843975,-6.391587E-5,0.7897873,4.327819,8.720132,0,0,0,0,0,0,0,0,0,0,0,0,0,0,0,0,0,0,0,0,0
183,3.1224275,-0.45712477,-0.08034069,0.00897139,-0.022620358,-0.013199425,0.82929164,4.3206363,8.702175,0,0,0,0,0,0,0,0,0,0,0,0,0,0,0,0,0,0,0,0,0
184,3.123134,-0.45774293,-0.080389835,0.00897139,0.009337575,-0.015329954,0.74908584,4.2691607,8.575282,0,0,0,0,0,0,0,0,0,0,0,0,0,0,0,0,0,0,0,0,0
185,3.12353,-0.4577792,-0.08014305,-0.002746518,-0.010902449,-0.016395219,0.6688801,4.297891,8.607604,0,0,0,0,0,0,0,0,0,0,0,0,0,0,0,0,0,0,0,0,0
186,3.124051,-0.45783752,-0.080988474,-0.0016812535,-0.038599323,-0.016395219,0.6880337,4.3002853,8.668656,0,0,0,0,0,0,0,0,0,0,0,0,0,0,0,0,0,0,0,0,0
187,3.1244307,-0.45779204,-0.081446245,-0.0038117825,-0.019424565,-0.015329954,0.6808511,4.271555,8.67943,0,0,0,0,0,0,0,0,0,0,0,0,0,0,0,0,0,0,0,0,0
188,3.1241302,-0.45777324,-0.08134312,-0.0091381045,-0.021555092,-0.015329954,0.6628946,4.2751465,8.672248,0,0,0,0,0,0,0,0,0,0,0,0,0,0,0,0,0,0,0,0,0
189,3.1242893,-0.4572087,-0.08167418,-0.011268633,-0.017294036,-0.018525748,0.6533178,4.2512045,8.821885,0,0,0,0,0,0,0,0,0,0,0,0,0,0,0,0,0,0,0,0,0
190,3.1243906,-0.457508,-0.081469774,0.03240721,0.01040284,0.0038448055,0.63176996,4.2763433,8.590844,0,0,0,0,0,0,0,0,0,0,0,0,0,0,0,0,0,0,0,0,0
191,3.1240792,-0.45813334,-0.081505895,-0.022986542,-0.0023803334,-0.0046773097,0.72035545,4.297891,8.666262,0,0,0,0,0,0,0,0,0,0,0,0,0,0,0,0,0,0,0,0,0
192,3.1241171,-0.45714325,-0.08085909,-0.0070075756,0.0040112534,-0.0068078386,0.64014965,4.282329,8.797943,0,0,0,0,0,0,0,0,0,0,0,0,0,0,0,0,0,0,0,0,0
193,3.1236234,-0.4574157,-0.08163966,0.006840862,-0.017294036,0.013432185,0.72873515,4.2871175,8.714146,0,0,0,0,0,0,0,0,0,0,0,0,0,0,0,0,0,0,0,0,0
194,3.1233249,-0.4574607,-0.081651755,0.0015145397,0.012533369,6.4901233E-4,0.7047931,4.2931027,8.764424,0,0,0,0,0,0,0,0,0,0,0,0,0,0,0,0,0,0,0,0,0
195,3.1233227,-0.45751888,-0.08193302,0.0036450685,-0.0023803334,0.008105863,0.8233061,4.2751465,8.766818,0,0,0,0,0,0,0,0,0,0,0,0,0,0,0,0,0,0,0,0,0
196,3.12366,-0.45841676,-0.08301912,0.030276679,-0.027946679,-0.0046773097,0.810138,4.2811317,8.776395,0,0,0,0,0,0,0,0,0,0,0,0,0,0,0,0,0,0,0,0,0
197,3.1240947,-0.45911738,-0.08220598,0.016428242,0.0295776,-0.0089383675,0.7826047,4.2787375,8.595633,0,0,0,0,0,0,0,0,0,0,0,0,0,0,0,0,0,0,0,0,0
198,3.1241856,-0.45917737,-0.082316205,0.0015145397,0.01785969,-0.01426469,0.75866264,4.3134537,8.626758,0,0,0,0,0,0,0,0,0,0,0,0,0,0,0,0,0,0,0,0,0
199,3.1244667,-0.45955458,-0.081674136,0.024950357,-0.033273,-0.02172154,0.6581062,4.2895117,8.455572,0,0,0,0,0,0,0,0,0,0,0,0,0,0,0,0,0,0,0,0,0
200,3.1250517,-0.46004876,-0.08259613,-0.020856014,-0.021555092,-0.01426469,0.72155255,4.2763433,8.599224,0,0,0,0,0,0,0,0,0,0,0,0,0,0,0,0,0,0,0,0,0
201,3.125573,-0.458714,-0.082240224,-0.025117071,-0.0077066557,-0.016395219,0.71317285,4.2571898,8.910471,0,0,0,0,0,0,0,0,0,0,0,0,0,0,0,0,0,0,0,0,0
202,3.125855,-0.45889077,-0.082646996,0.02814615,-0.027946679,-0.0036120454,0.72514385,4.3110595,8.746468,0,0,0,0,0,0,0,0,0,0,0,0,0,0,0,0,0,0,0,0,0
203,3.125854,-0.4597002,-0.082775,0.012167184,0.005076518,-0.01426469,0.6844424,4.3110595,8.578874,0,0,0,0,0,0,0,0,0,0,0,0,0,0,0,0,0,0,0,0,0
204,3.1261573,-0.4590599,-0.08207123,-0.014464427,0.008272311,-0.016395219,0.6712743,4.319439,8.735694,0,0,0,0,0,0,0,0,0,0,0,0,0,0,0,0,0,0,0,0,0
205,3.126169,-0.45957753,-0.08239283,0.019624036,-0.019424565,-0.0089383675,0.6521207,4.2607813,8.692598,0,0,0,0,0,0,0,0,0,0,0,0,0,0,0,0,0,0,0,0,0
206,3.1262627,-0.45957875,-0.08255253,0.0036450685,-0.010902449,-0.0089383675,0.6928221,4.2428246,8.700978,0,0,0,0,0,0,0,0,0,0,0,0,0,0,0,0,0,0,0,0,0
207,3.125769,-0.45941824,-0.08232901,-0.002746518,0.024251277,-0.0036120454,0.62339026,4.2392335,8.718934,0,0,0,0,0,0,0,0,0,0,0,0,0,0,0,0,0,0,0,0,0
208,3.125565,-0.45906305,-0.081301376,-0.002746518,0.01040284,0.013432185,0.6820482,4.244022,8.771606,0,0,0,0,0,0,0,0,0,0,0,0,0,0,0,0,0,0,0,0,0
209,3.1251392,-0.45896178,-0.08193944,0.006840862,-0.0183593,0.010236392,0.7682395,4.2787375,8.831462,0,0,0,0,0,0,0,0,0,0,0,0,0,0,0,0,0,0,0,0,0
210,3.124742,-0.4591986,-0.082350865,0.015362977,0.030642863,0.010236392,0.75148004,4.235642,8.72492,0,0,0,0,0,0,0,0,0,0,0,0,0,0,0,0,0,0,0,0,0
211,3.1243362,-0.45955497,-0.08171929,0.007906126,0.014663897,0.011301656,0.7921815,4.2990885,8.65908,0,0,0,0,0,0,0,0,0,0,0,0,0,0,0,0,0,0,0,0,0
212,3.1243794,-0.45986393,-0.082028925,0.013232448,-0.011967713,-0.007873103,0.72873515,4.3206363,8.614787,0,0,0,0,0,0,0,0,0,0,0,0,0,0,0,0,0,0,0,0,0
213,3.1246,-0.46005464,-0.08230853,0.0036450685,-0.0077066557,-0.002546781,0.74429744,4.306271,8.639926,0,0,0,0,0,0,0,0,0,0,0,0,0,0,0,0,0,0,0,0,0
214,3.1247625,-0.46036637,-0.08304848,0.013232448,-0.020489829,-0.0046773097,0.7814076,4.282329,8.706964,0,0,0,0,0,0,0,0,0,0,0,0,0,0,0,0,0,0,0,0,0
215,3.1254117,-0.46087086,-0.08353923,0.015362977,-0.020489829,-0.017460482,0.75267714,4.267964,8.624364,0,0,0,0,0,0,0,0,0,0,0,0,0,0,0,0,0,0,0,0,0
216,3.1259243,-0.46025714,-0.08335079,-0.015529691,-0.006641391,-0.018525748,0.6928221,4.2571898,8.71654,0,0,0,0,0,0,0,0,0,0,0,0,0,0,0,0,0,0,0,0,0
217,3.125693,-0.45995307,-0.0832528,-0.002746518,-0.010902449,-0.019591011,0.691625,4.209306,8.797943,0,0,0,0,0,0,0,0,0,0,0,0,0,0,0,0,0,0,0,0,0
218,3.1261172,-0.460079,-0.08321976,0.036668267,-0.0023803334,-0.002546781,0.6760627,4.2488103,8.598027,0,0,0,0,0,0,0,0,0,0,0,0,0,0,0,0,0,0,0,0,0
219,3.1261575,-0.46087107,-0.08313031,-0.020856014,0.0072070463,-0.013199425,0.71436995,4.259584,8.572888,0,0,0,0,0,0,0,0,0,0,0,0,0,0,0,0,0,0,0,0,0
220,3.1266148,-0.45936406,-0.08217684,-0.015529691,0.011468104,-0.011068896,0.6760627,4.2775407,8.818294,0,0,0,0,0,0,0,0,0,0,0,0,0,0,0,0,0,0,0,0,0
221,3.1266425,-0.45958993,-0.08251284,0.021754565,-0.03220774,0.0017142767,0.71915835,4.303877,8.683022,0,0,0,0,0,0,0,0,0,0,0,0,0,0,0,0,0,0,0,0,0
222,3.1268868,-0.4597501,-0.08366899,-0.0016812535,-0.009837184,-0.0014815165,0.7754221,4.2943,8.68781,0,0,0,0,0,0,0,0,0,0,0,0,0,0,0,0,0,0,0,0,0
223,3.1273952,-0.45910394,-0.083365366,-0.016594956,8.1545993E-4,-0.010003632,0.798167,4.2895117,8.806323,0,0,0,0,0,0,0,0,0,0,0,0,0,0,0,0,0,0,0,0,0
224,3.127858,-0.45945853,-0.08411678,0.021754565,-0.030077208,-0.015329954,0.74190325,4.2943,8.832659,0,0,0,0,0,0,0,0,0,0,0,0,0,0,0,0,0,0,0,0,0
225,3.1277137,-0.46057186,-0.08358411,0.036668267,0.014663897,-0.0036120454,0.71676415,4.2751465,8.718934,0,0,0,0,0,0,0,0,0,0,0,0,0,0,0,0,0,0,0,0,0
226,3.127573,-0.46060938,-0.08356962,0.024950357,0.021055484,6.4901233E-4,0.71317285,4.295497,8.587254,0,0,0,0,0,0,0,0,0,0,0,0,0,0,0,0,0,0,0,0,0
227,3.127384,-0.4614366,-0.083138116,0.0206893,-0.031142473,-0.007873103,0.71317285,4.2883143,8.565705,0,0,0,0,0,0,0,0,0,0,0,0,0,0,0,0,0,0,0,0,0
228,3.1274562,-0.46200103,-0.083927564,0.004710333,-0.0013150689,-0.0046773097,0.6976105,4.2392335,8.608801,0,0,0,0,0,0,0,0,0,0,0,0,0,0,0,0,0,0,0,0,0
229,3.1271894,-0.46171147,-0.0833152,-0.0038117825,0.016794426,0.0059753344,0.691625,4.295497,8.739285,0,0,0,0,0,0,0,0,0,0,0,0,0,0,0,0,0,0,0,0,0
230,3.1267457,-0.46188942,-0.083473586,0.0206893,-0.027946679,0.00491007,0.6844424,4.295497,8.721329,0,0,0,0,0,0,0,0,0,0,0,0,0,0,0,0,0,0,0,0,0
231,3.1262438,-0.4627019,-0.0841171,0.019624036,-0.0023803334,0.0059753344,0.7047931,4.3170447,8.6279545,0,0,0,0,0,0,0,0,0,0,0,0,0,0,0,0,0,0,0,0,0
232,3.1260166,-0.4626131,-0.08331695,0.0036450685,0.021055484,-0.0036120454,0.6976105,4.319439,8.824279,0,0,0,0,0,0,0,0,0,0,0,0,0,0,0,0,0,0,0,0,0
233,3.12593,-0.46340007,-0.082971655,0.03240721,0.005076518,-0.005742574,0.7000047,4.297891,8.752453,0,0,0,0,0,0,0,0,0,0,0,0,0,0,0,0,0,0,0,0,0
234,3.1256995,-0.46416536,-0.082299285,0.023885092,0.015729161,-0.0036120454,0.6593033,4.2931027,8.595633,0,0,0,0,0,0,0,0,0,0,0,0,0,0,0,0,0,0,0,0,0
235,3.1253765,-0.46403164,-0.082158454,-0.0048770467,0.024251277,0.0027795413,0.6593033,4.3170447,8.744074,0,0,0,0,0,0,0,0,0,0,0,0,0,0,0,0,0,0,0,0,0
236,3.1251822,-0.46384874,-0.08158363,0.050516702,-2.4980452E-4,0.020889036,0.73112935,4.2775407,8.678233,0,0,0,0,0,0,0,0,0,0,0,0,0,0,0,0,0,0,0,0,0
237,3.1243627,-0.4656215,-0.082404904,0.014297713,0.0040112534,0.02408483,0.7909844,4.271555,8.528595,0,0,0,0,0,0,0,0,0,0,0,0,0,0,0,0,0,0,0,0,0
238,3.1236005,-0.46550035,-0.08214079,-6.1598915E-4,0.030642863,0.017693244,0.6952163,4.343381,8.598027,0,0,0,0,0,0,0,0,0,0,0,0,0,0,0,0,0,0,0,0,0
239,3.123022,-0.46594945,-0.082489766,0.024950357,-0.021555092,0.026215358,0.8185177,4.3445783,8.595633,0,0,0,0,0,0,0,0,0,0,0,0,0,0,0,0,0,0,0,0,0
240,3.122691,-0.4665963,-0.08413626,0.007906126,-0.0183593,0.009171127,0.8065467,4.364929,8.626758,0,0,0,0,0,0,0,0,0,0,0,0,0,0,0,0,0,0,0,0,0
241,3.1225853,-0.46630293,-0.0842242,-0.011268633,-0.0013150689,0.010236392,0.7885902,4.345775,8.787169,0,0,0,0,0,0,0,0,0,0,0,0,0,0,0,0,0,0,0,0,0
242,3.122496,-0.4664414,-0.085435115,0.016428242,-0.030077208,0.0038448055,0.7766192,4.3242273,8.824279,0,0,0,0,0,0,0,0,0,0,0,0,0,0,0,0,0,0,0,0,0
243,3.1221902,-0.4674861,-0.08557822,0.03240721,0.008272311,0.011301656,0.7730279,4.3565493,8.639926,0,0,0,0,0,0,0,0,0,0,0,0,0,0,0,0,0,0,0,0,0
244,3.1222296,-0.4680273,-0.08534336,0.014297713,0.0072070463,-4.1625206E-4,0.73232645,4.3924623,8.593239,0,0,0,0,0,0,0,0,0,0,0,0,0,0,0,0,0,0,0,0,0
245,3.1222155,-0.46784756,-0.08528323,0.020622721,-0.027988492,-0.013146961,0.71556705,4.3002853,8.67105,0,0,0,0,0,0,0,0,0,0,0,0,0,0,0,0,0,0,0,0,0
246,3.12236,-0.4684604,-0.08584285,0.015296399,0.0060999705,-0.003559581,0.64014965,4.2727523,8.655488,0,0,0,0,0,0,0,0,0,0,0,0,0,0,0,0,0,0,0,0,0
247,3.1215975,-0.4693258,-0.0849042,0.03234063,0.007165235,0.014549914,0.59226567,4.2811317,8.442404,0,0,0,0,0,0,0,0,0,0,0,0,0,0,0,0,0,0,0,0,0
248,3.1211295,-0.4694247,-0.08557834,-0.024118386,-0.05248957,-0.003559581,0.7000047,4.2727523,8.766818,0,0,0,0,0,0,0,0,0,0,0,0,0,0,0,0,0,0,0,0,0
249,3.121073,-0.4682399,-0.08611444,0.004643754,0.009295763,0.004962534,0.6688801,4.2368393,8.879346,0,0,0,0,0,0,0,0,0,0,0,0,0,0,0,0,0,0,0,0,0
250,3.1197574,-0.46864194,-0.08553376,0.028079571,0.0231442,0.02520256,0.73711485,4.279935,8.648306,0,0,0,0,0,0,0,0,0,0,0,0,0,0,0,0,0,0,0,0,0
251,3.119109,-0.46846122,-0.08550128,-0.0038783615,0.009295763,0.004962534,0.7909844,4.3361983,8.813505,0,0,0,0,0,0,0,0,0,0,0,0,0,0,0,0,0,0,0,0,0
252,3.1186101,-0.46904925,-0.08526229,0.0302101,0.021013672,0.012419385,0.8113351,4.279935,8.6674595,0,0,0,0,0,0,0,0,0,0,0,0,0,0,0,0,0,0,0,0,0
253,3.118323,-0.46967188,-0.08515056,0.019557456,0.014622086,0.008158328,0.8197148,4.3565493,8.552537,0,0,0,0,0,0,0,0,0,0,0,0,0,0,0,0,0,0,0,0,0
254,3.1180427,-0.4695501,-0.08514767,0.006774283,0.0039694416,0.010288857,0.74070615,4.3613377,8.692598,0,0,0,0,0,0,0,0,0,0,0,0,0,0,0,0,0,0,0,0,0
255,3.1178071,-0.4699749,-0.085654594,0.034471158,-0.008813731,0.019876236,0.85443074,4.3565493,8.553735,0,0,0,0,0,0,0,0,0,0,0,0,0,0,0,0,0,0,0,0,0
256,3.1171513,-0.47081885,-0.08672832,-0.0017478326,-0.023727434,-0.0046248455,0.83527714,4.3685203,8.621969,0,0,0,0,0,0,0,0,0,0,0,0,0,0,0,0,0,0,0,0,0
257,3.1174624,-0.47022173,-0.08734341,-0.002813097,-0.004552674,-0.0014290522,0.83767134,4.3350015,8.855404,0,0,0,0,0,0,0,0,0,0,0,0,0,0,0,0,0,0,0,0,0
258,3.1177216,-0.47065905,-0.088047534,0.029144837,-0.017335847,7.0147665E-4,0.9083003,4.3948565,8.739285,0,0,0,0,0,0,0,0,0,0,0,0,0,0,0,0,0,0,0,0,0
259,3.1180944,-0.47189865,-0.088560835,0.033405893,0.0029041772,-0.02486487,0.8185177,4.4164042,8.557325,0,0,0,0,0,0,0,0,0,0,0,0,0,0,0,0,0,0,0,0,0
260,3.118688,-0.47282043,-0.08778149,0.020622721,-0.0034874093,-0.028060663,0.6988076,4.343381,8.495076,0,0,0,0,0,0,0,0,0,0,0,0,0,0,0,0,0,0,0,0,0
261,3.1192148,-0.47331405,-0.08876648,0.0152726965,-0.0461129,-0.023780962,0.73831195,4.333804,8.554932,0,0,0,0,0,0,0,0,0,0,0,0,0,0,0,0,0,0,0,0,0
262,3.1199038,-0.47322738,-0.08903548,0.0035547875,-0.017350761,-0.026976757,0.75626844,4.2943,8.644714,0,0,0,0,0,0,0,0,0,0,0,0,0,0,0,0,0,0,0,0,0
263,3.1202116,-0.47343138,-0.088675804,0.012076903,-0.012024439,-0.02804202,0.63536125,4.258387,8.581267,0,0,0,0,0,0,0,0,0,0,0,0,0,0,0,0,0,0,0,0,0
264,3.1197543,-0.4730187,-0.08850841,-0.009228386,-0.031199198,-0.006736732,0.6988076,4.238036,8.683022,0,0,0,0,0,0,0,0,0,0,0,0,0,0,0,0,0,0,0,0,0
265,3.1196923,-0.47216645,-0.089129224,-0.011358915,0.010346115,-0.0014104102,0.74908584,4.2631755,8.752453,0,0,0,0,0,0,0,0,0,0,0,0,0,0,0,0,0,0,0,0,0
266,3.1194415,-0.4720125,-0.08869423,0.012076903,-0.0077633807,-3.4514567E-4,0.75746554,4.3792944,8.64232,0,0,0,0,0,0,0,0,0,0,0,0,0,0,0,0,0,0,0,0,0
267,3.1193826,-0.47224066,-0.088890575,-0.02201156,0.01886823,-0.006736732,0.7718308,4.424784,8.639926,0,0,0,0,0,0,0,0,0,0,0,0,0,0,0,0,0,0,0,0,0
268,3.1195123,-0.4709933,-0.08802067,-0.02043976,-0.0035286883,0.010985539,0.774225,4.4032364,8.881741,0,0,0,0,0,0,0,0,0,0,0,0,0,0,0,0,0,0,0,0,0
269,3.1189437,-0.47147927,-0.090390384,0.030692931,-0.06637929,0.013116068,0.8843582,4.494216,8.914062,0,0,0,0,0,0,0,0,0,0,0,0,0,0,0,0,0,0,0,0,0
270,3.1191614,-0.47126895,-0.09455812,0.022170816,-0.040812943,0.004593953,1.072303,4.3816886,8.930821,0,0,0,0,0,0,0,0,0,0,0,0,0,0,0,0,0,0,0,0,0
271,3.1194773,-0.47252944,-0.09512606,0.04241084,-0.015246597,-0.010319749,0.8759785,4.3936596,8.864981,0,0,0,0,0,0,0,0,0,0,0,0,0,0,0,0,0,0,0,0,0
272,3.1186993,-0.47539395,-0.09528134,0.089282475,0.010319749,0.016311862,0.85083944,4.396054,8.565705,0,0,0,0,0,0,0,0,0,0,0,0,0,0,0,0,0,0,0,0,0
273,3.1188138,-0.47531977,-0.095334426,0.041345574,-3.3289514E-4,-0.013515542,0.8257003,4.307468,8.404097,0,0,0,0,0,0,0,0,0,0,0,0,0,0,0,0,0,0,0,0,0
274,3.118605,-0.4765724,-0.094828695,0.04241084,-0.019507654,-0.0028628982,0.6485294,4.345775,8.389731,0,0,0,0,0,0,0,0,0,0,0,0,0,0,0,0,0,0,0,0,0
275,3.1177497,-0.47863185,-0.095245525,0.036019254,-0.019507654,0.016311862,0.62578446,4.360141,7.9587755,0,0,0,0,0,0,0,0,0,0,0,0,0,0,0,0,0,0,0,0,0
276,3.116511,-0.47853196,-0.09564953,-0.08542089,-0.00885501,0.0024634239,0.61022216,4.4654856,8.350227,0,0,0,0,0,0,0,0,0,0,0,0,0,0,0,0,0,0,0,0,0
277,3.1155527,-0.47577277,-0.09519503,-0.05878928,-0.01844239,0.012050804,0.49410337,4.479851,8.65908,0,0,0,0,0,0,0,0,0,0,0,0,0,0,0,0,0,0,0,0,0
278,3.1137455,-0.47501177,-0.09612029,-0.011917646,-0.0599877,0.038682416,0.62099606,4.4630914,8.52261,0,0,0,0,0,0,0,0,0,0,0,0,0,0,0,0,0,0,0,0,0
279,3.1138384,-0.47295815,-0.10249194,-0.05346296,-0.24214792,-0.023102922,0.8855553,4.408025,8.987085,0,0,0,0,0,0,0,0,0,0,0,0,0,0,0,0,0,0,0,0,0
280,3.1134772,-0.47404996,-0.10815621,0.016844494,-0.15373097,0.01844239,0.7838018,4.4211926,8.684218,0,0,0,0,0,0,0,0,0,0,0,0,0,0,0,0,0,0,0,0,0
281,3.1147196,-0.47032192,-0.11184025,-0.130162,-0.19634154,-0.04653874,0.6772598,4.424784,8.461557,0,0,0,0,0,0,0,0,0,0,0,0,0,0,0,0,0,0,0,0,0
282,3.1174936,-0.46937212,-0.12321146,-0.035353463,-0.4456134,-0.1136504,0.4091092,4.4427404,8.991874,0,0,0,0,0,0,0,0,0,0,0,0,0,0,0,0,0,0,0,0,0
283,3.1174889,-0.46953768,-0.122879386,-0.27610323,-0.1409478,0.10472881,1.0304046,5.0125604,9.628731,0,0,0,0,0,0,0,0,0,0,0,0,0,0,0,0,0,0,0,0,0
284,3.1138594,-0.4601212,-0.1275017,0.060520336,0.22976422,0.20166788,1.2805986,4.2883143,9.137919,0,0,0,0,0,0,0,0,0,0,0,0,0,0,0,0,0,0,0,0,0
285,3.1054728,-0.46100253,-0.12175205,0.026431873,0.1796968,0.13349095,1.0758944,4.5133696,8.548946,0,0,0,0,0,0,0,0,0,0,0,0,0,0,0,0,0,0,0,0,0
286,3.1028566,-0.4656766,-0.121725805,0.23096265,-0.5691841,-0.056126118,0.72873515,3.9662943,7.314735,0,0,0,0,0,0,0,0,0,0,0,0,0,0,0,0,0,0,0,0,0
287,3.1056712,-0.4706591,-0.136592,-0.08435563,-0.22829948,0.014181333,1.5080478,4.9754505,8.429236,0,0,0,0,0,0,0,0,0,0,0,0,0,0,0,0,0,0,0,0,0
288,3.1056757,-0.46942502,-0.13377921,-0.024700819,0.23722108,-0.066778764,0.358831,4.3565493,9.030181,0,0,0,0,0,0,0,0,0,0,0,0,0,0,0,0,0,0,0,0,0
289,3.101853,-0.46443507,-0.116212174,-0.12909673,0.23189475,0.10472881,0.45819035,4.4331636,9.273192,0,0,0,0,0,0,0,0,0,0,0,0,0,0,0,0,0,0,0,0,0
290,3.0976458,-0.4715,-0.14710014,0.37157756,-1.1827765,-0.082757734,-0.38337156,3.7639844,9.772383,0,0,0,0,0,0,0,0,0,0,0,0,0,0,0,0,0,0,0,0,0
291,3.0881085,-0.48498943,-0.16923146,0.43762395,-0.5595967,0.18036258,1.2207435,5.216068,9.887305,0,0,0,0,0,0,0,0,0,0,0,0,0,0,0,0,0,0,0,0,0
292,3.0952902,-0.48589453,-0.1725493,0.5494767,0.96479666,-0.176501,2.3077111,4.113538,6.626402,0,0,0,0,0,0,0,0,0,0,0,0,0,0,0,0,0,0,0,0,0
293,3.1020257,-0.5025246,-0.127259,-0.16425046,1.7903767,-0.34055173,1.4469956,4.5397058,7.9144826,0,0,0,0,0,0,0,0,0,0,0,0,0,0,0,0,0,0,0,0,0
294,3.1138792,-0.49367914,-0.063265555,-0.23029685,0.6729142,-0.377836,0.8903438,4.2943,10.71929,0,0,0,0,0,0,0,0,0,0,0,0,0,0,0,0,0,0,0,0,0
295,3.1253238,-0.49235722,-0.05395695,1.026683,-1.1476471,-0.33307436,-0.2971803,4.7623663,11.290307,0,0,0,0,0,0,0,0,0,0,0,0,0,0,0,0,0,0,0,0,0
296,3.1305418,-0.54978126,-0.09742202,1.562511,-0.77480465,-0.114695154,1.1118075,4.1554365,5.4795794,0,0,0,0,0,0,0,0,0,0,0,0,0,0,0,0,0,0,0,0,0
297,3.1256907,-0.581974,-0.09518081,0.105229214,0.9935343,-0.11256463,0.19003975,4.3242273,4.988768,0,0,0,0,0,0,0,0,0,0,0,0,0,0,0,0,0,0,0,0,0
298,3.115157,-0.5577528,-0.04687688,-0.7267423,1.241741,0.38491386,-0.24450785,4.112341,8.915259,0,0,0,0,0,0,0,0,0,0,0,0,0,0,0,0,0,0,0,0,0
299,3.082661,-0.5467583,-0.080227554,-0.28252703,-0.45948637,1.0837274,1.083077,6.3293715,8.830265,0,0,0,0,0,0,0,0,0,0,0,0,0,0,0,0,0,0,0,0,0
300,3.044602,-0.5114941,-0.097260095,-0.96110046,0.37035462,1.0954453,3.6616323,5.672163,9.668236,0,0,0,0,0,0,0,0,0,0,0,0,0,0,0,0,0,0,0,0,0
301,3.0359519,-0.5071106,-0.109924875,-0.12060684,-0.2517598,0.25601685,0.83527714,5.23163,8.825477,0,0,0,0,0,0,0,0,0,0,0,0,0,0,0,0,0,0,0,0,0
302,3.035336,-0.50671816,-0.10906806,-0.4657525,-0.7577604,0.6064889,0.58867437,4.6558247,8.76203,0,0,0,0,0,0,0,0,0,0,0,0,0,0,0,0,0,0,0,0,0
303,3.0130749,-0.48615643,-0.14588274,-0.5296684,-0.5095538,0.63098997,0.6664859,3.9914336,8.665065,0,0,0,0,0,0,0,0,0,0,0,0,0,0,0,0,0,0,0,0,0
304,2.9874566,-0.47953865,-0.14848816,0.59738135,1.2289578,0.7556259,0.34685996,4.384083,8.147918,0,0,0,0,0,0,0,0,0,0,0,0,0,0,0,0,0,0,0,0,0
305,2.9524972,-0.49710077,-0.117224865,0.58033717,1.806331,1.0485736,1.7259202,4.5636477,7.242909,0,0,0,0,0,0,0,0,0,0,0,0,0,0,0,0,0,0,0,0,0
306,2.9237485,-0.5044011,-0.078540586,0.3481095,1.4047264,0.63951206,2.7877486,4.7755346,9.025393,0,0,0,0,0,0,0,0,0,0,0,0,0,0,0,0,0,0,0,0,0
307,2.9051,-0.5202493,-0.0460233,0.39711168,0.8305489,0.284779,-0.9412205,4.6594157,7.8199115,0,0,0,0,0,0,0,0,0,0,0,0,0,0,0,0,0,0,0,0,0
308,2.8728087,-0.5255188,-0.037539624,0.031725973,0.23613131,0.7822575,-1.2644378,4.536114,7.084892,0,0,0,0,0,0,0,0,0,0,0,0,0,0,0,0,0,0,0,0,0
309,2.843925,-0.5151076,-0.048879832,-0.35389975,0.38846412,0.9644177,1.6373347,4.4211926,7.5218334,0,0,0,0,0,0,0,0,0,0,0,0,0,0,0,0,0,0,0,0,0
310,2.8258367,-0.49747923,-0.06055642,-0.48066622,0.10190799,0.66188264,2.0060418,4.7791257,8.942792,0,0,0,0,0,0,0,0,0,0,0,0,0,0,0,0,0,0,0,0,0
311,2.820665,-0.49840003,-0.058352593,-0.10676719,-0.0738673,0.6597577,-0.39773676,4.8437696,8.0066595,0,0,0,0,0,0,0,0,0,0,0,0,0,0,0,0,0,0,0,0,0
312,2.7940958,-0.49704826,-0.07524824,-0.51902455,0.47048283,1.4203565,1.0160394,4.757578,6.5845037,0,0,0,0,0,0,0,0,0,0,0,0,0,0,0,0,0,0,0,0,0
313,2.744847,-0.4688018,-0.0842958,-0.8162333,0.057160225,1.0741456,1.4996681,3.7807438,9.177424,0,0,0,0,0,0,0,0,0,0,0,0,0,0,0,0,0,0,0,0,0
314,2.7228954,-0.44499347,-0.098346345,0.065805644,0.05076864,0.15375707,1.0974422,4.333804,9.498247,0,0,0,0,0,0,0,0,0,0,0,0,0,0,0,0,0,0,0,0,0
315,2.7045014,-0.46042487,-0.09065854,0.25009638,0.9381339,0.41794264,0.21158758,5.172972,6.838289,0,0,0,0,0,0,0,0,0,0,0,0,0,0,0,0,0,0,0,0,0
316,2.6711633,-0.46291468,-0.04275231,0.3033596,2.0044637,0.85044,-0.9591771,4.622306,9.556905,0,0,0,0,0,0,0,0,0,0,0,0,0,0,0,0,0,0,0,0,0
317,2.6499276,-0.48091024,0.0069979397,0.5398483,0.8103022,0.39663735,0.51086277,3.3473933,10.947936,0,0,0,0,0,0,0,0,0,0,0,0,0,0,0,0,0,0,0,0,0
318,2.6483655,-0.4829877,-0.0077411244,0.080719344,-0.7481797,-0.14984329,-1.7480665,4.1434655,11.14426,0,0,0,0,0,0,0,0,0,0,0,0,0,0,0,0,0,0,0,0,0
319,2.6549957,-0.4871852,-0.05226491,0.14783101,-1.4661679,-0.24039076,0.2510919,4.2188826,9.005041,0,0,0,0,0,0,0,0,0,0,0,0,0,0,0,0,0,0,0,0,0
320,2.67136,-0.5135751,-0.072463445,0.70709485,-0.60543424,-0.26595712,1.807323,4.897639,6.6204166,0,0,0,0,0,0,0,0,0,0,0,0,0,0,0,0,0,0,0,0,0
321,2.6012626,-0.5187284,-0.07814612,0.8359918,1.2342774,-0.40550676,1.6229695,4.519355,4.356699,0,0,0,0,0,0,0,0,0,0,0,0,0,0,0,0,0,0,0,0,0
322,2.6037638,-0.54721344,-0.01387597,0.45462716,2.4966156,-0.23612972,-1.0752958,6.318598,8.032995,0,0,0,0,0,0,0,0,0,0,0,0,0,0,0,0,0,0,0,0,0
323,2.6048284,-0.5588864,0.07008274,0.54517466,2.0928805,0.42966056,-0.40970775,3.8525698,10.890475,0,0,0,0,0,0,0,0,0,0,0,0,0,0,0,0,0,0,0,0,0
324,2.5973854,-0.5713515,0.10637454,0.029586654,-0.36361924,-0.15090856,0.47255555,3.4922423,8.999056,0,0,0,0,0,0,0,0,0,0,0,0,0,0,0,0,0,0,0,0,0
325,2.6151514,-0.5566834,0.084712684,-0.5850709,-0.6949165,-0.43746468,0.5431845,5.230433,8.5082445,0,0,0,0,0,0,0,0,0,0,0,0,0,0,0,0,0,0,0,0,0
326,2.6258368,-0.5406042,0.08090458,-0.39332333,-0.061084125,-0.3351993,-0.9364321,5.7475805,8.540566,0,0,0,0,0,0,0,0,0,0,0,0,0,0,0,0,0,0,0,0,0
327,2.6200156,-0.53737617,0.09233597,-0.02900289,0.63772935,0.25921825,-0.76764095,5.1813517,8.544158,0,0,0,0,0,0,0,0,0,0,0,0,0,0,0,0,0,0,0,0,0
328,2.605119,-0.5407623,0.11328149,0.17232037,0.89338374,0.44245145,-0.81193364,4.297891,9.517401,0,0,0,0,0,0,0,0,0,0,0,0,0,0,0,0,0,0,0,0,0
329,2.5908036,-0.55248934,0.12086044,0.31719634,0.4747348,0.40410194,-0.67306995,5.2005053,8.824279,0,0,0,0,0,0,0,0,0,0,0,0,0,0,0,0,0,0,0,0,0
330,2.5972357,-0.5494402,0.118070535,0.19575618,0.109349124,0.55430424,0.17447744,3.9591117,9.361777,0,0,0,0,0,0,0,0,0,0,0,0,0,0,0,0,0,0,0,0,0
331,2.5813227,-0.56017464,0.10748137,0.34382793,-0.14524907,-0.029460687,0.26665422,5.005378,7.037008,0,0,0,0,0,0,0,0,0,0,0,0,0,0,0,0,0,0,0,0,0
332,2.581685,-0.57186407,0.10939715,0.39709115,0.7634215,-0.020938572,-1.1112089,5.662586,8.302343,0,0,0,0,0,0,0,0,0,0,0,0,0,0,0,0,0,0,0,0,0
333,2.5795286,-0.58382833,0.13345197,0.275651,0.27020407,0.20383222,-1.1040263,5.0736127,8.137143,0,0,0,0,0,0,0,0,0,0,0,0,0,0,0,0,0,0,0,0,0
334,2.5776527,-0.5854057,0.123430766,0.039162315,-0.26349342,0.060021523,0.040402155,4.283526,8.870966,0,0,0,0,0,0,0,0,0,0,0,0,0,0,0,0,0,0,0,0,0
335,2.5860772,-0.5906389,0.103024796,0.32678372,-0.65231496,-0.28512415,-0.39653966,5.5608325,8.254459,0,0,0,0,0,0,0,0,0,0,0,0,0,0,0,0,0,0,0,0,0
336,2.5846639,-0.60515547,0.09379207,0.3182616,-0.26562396,-0.13492186,-0.78200614,6.1019225,6.646753,0,0,0,0,0,0,0,0,0,0,0,0,0,0,0,0,0,0,0,0,0
337,2.5824134,-0.6146933,0.09821568,0.31293526,0.23931138,0.084522605,-0.6335656,5.5572414,7.8881464,0,0,0,0,0,0,0,0,0,0,0,0,0,0,0,0,0,0,0,0,0
338,2.5751622,-0.6320713,0.11184942,0.51427025,0.487518,0.17507008,-0.9807249,5.732018,8.097639,0,0,0,0,0,0,0,0,0,0,0,0,0,0,0,0,0,0,0,0,0
339,2.5670052,-0.6521164,0.12516241,0.5781861,0.48006114,0.186788,-1.0118495,5.88405,7.6080246,0,0,0,0,0,0,0,0,0,0,0,0,0,0,0,0,0,0,0,0,0
340,2.5680902,-0.65070444,0.12472543,0.22877939,0.07099961,0.20702802,-0.80594814,5.137059,7.773225,0,0,0,0,0,0,0,0,0,0,0,0,0,0,0,0,0,0,0,0,0
341,2.5616336,-0.6570148,0.11873007,-0.021557756,-0.15270592,-0.12533449,-0.4468179,5.412392,6.803573,0,0,0,0,0,0,0,0,0,0,0,0,0,0,0,0,0,0,0,0,0
342,2.5673244,-0.6565791,0.12514457,0.18829934,0.28831354,-0.15622716,-1.0250176,6.2958527,7.803152,0,0,0,0,0,0,0,0,0,0,0,0,0,0,0,0,0,0,0,0,0
343,2.5701864,-0.6636841,0.13759084,0.1084045,0.10402281,-0.059288092,-1.017835,5.5392847,6.9041295,0,0,0,0,0,0,0,0,0,0,0,0,0,0,0,0,0,0,0,0,0
344,2.5667744,-0.66719323,0.15049316,0.12864453,0.29683566,0.008888832,-1.9695302,6.3760586,7.181857,0,0,0,0,0,0,0,0,0,0,0,0,0,0,0,0,0,0,0,0,0
345,2.5591707,-0.6663054,0.15647742,-0.10465131,0.28724617,0.12606978,-0.9543887,6.1917048,7.1770687,0,0,0,0,0,0,0,0,0,0,0,0,0,0,0,0,0,0,0,0,0
346,2.5531309,-0.66121584,0.16521783,0.064725734,0.45449266,0.10050344,-1.3171102,5.421969,8.519018,0,0,0,0,0,0,0,0,0,0,0,0,0,0,0,0,0,0,0,0,0
347,2.5625815,-0.67076045,0.18223387,0.32145447,0.32026935,-0.22227168,-1.1219828,5.180155,7.1758714,0,0,0,0,0,0,0,0,0,0,0,0,0,0,0,0,0,0,0,0,0
348,2.5799243,-0.6548608,0.17163914,-0.30705154,-0.65551287,-0.43852037,-2.218527,5.0137577,8.923638,0,0,0,0,0,0,0,0,0,0,0,0,0,0,0,0,0,0,0,0,0
349,2.577048,-0.655564,0.17181131,-0.7406142,-1.796411,-0.31921074,-1.4116812,6.4993596,7.7468886,0,0,0,0,0,0,0,0,0,0,0,0,0,0,0,0,0,0,0,0,0
350,2.5847008,-0.63185513,0.11586634,-0.6862857,-1.4129158,-0.20203166,-0.4659715,5.933131,6.658724,0,0,0,0,0,0,0,0,0,0,0,0,0,0,0,0,0,0,0,0,0
351,2.590568,-0.6104743,0.07689581,-0.29107258,-0.22195023,-0.113614716,-0.67306995,6.0073514,7.4643726,0,0,0,0,0,0,0,0,0,0,0,0,0,0,0,0,0,0,0,0,0
352,2.593813,-0.60594344,0.08546131,0.3289113,0.29044196,0.12074346,-1.6295536,5.4985833,9.1690445,0,0,0,0,0,0,0,0,0,0,0,0,0,0,0,0,0,0,0,0,0
353,2.590816,-0.6203029,0.082763046,0.29162705,-0.16655649,0.16335404,-0.3019687,5.398027,7.2967787,0,0,0,0,0,0,0,0,0,0,0,0,0,0,0,0,0,0,0,0,0
354,2.59244,-0.626183,0.07572075,0.11479316,0.04117007,-0.0720694,-0.1786673,5.4231663,7.3865614,0,0,0,0,0,0,0,0,0,0,0,0,0,0,0,0,0,0,0,0,0
355,2.5980303,-0.6337927,0.0905962,0.3118671,0.3788589,-0.11894103,-0.9627684,5.7607484,7.9360304,0,0,0,0,0,0,0,0,0,0,0,0,0,0,0,0,0,0,0,0,0
356,2.5982382,-0.647138,0.104613274,0.4247851,0.37459785,-0.006023005,-0.923264,5.71047,7.5601406,0,0,0,0,0,0,0,0,0,0,0,0,0,0,0,0,0,0,0,0,0
357,2.6076505,-0.6554605,0.117258415,0.3054755,0.23291767,-0.17326953,-0.78799164,5.6135054,8.243686,0,0,0,0,0,0,0,0,0,0,0,0,0,0,0,0,0,0,0,0,0
358,2.628673,-0.6562887,0.11528542,0.092422605,-0.43819892,-0.5109584,-0.65870476,5.945102,7.8965263,0,0,0,0,0,0,0,0,0,0,0,0,0,0,0,0,0,0,0,0,0
359,2.626516,-0.6568265,0.11471677,0.14994688,-0.3071714,-0.5290678,-0.70299745,6.596325,8.073697,0,1,0,0,0,0,0,0,0,0,0,0,0,0,0,0,0,0,0,0,0
360,2.6538517,-0.6600968,0.12011964,0.488701,-0.0344637,-0.6409206,-0.22774844,5.6757545,8.920048,0,1,0,0,0,0,0,0,0,0,0,0,0,0,0,0,0,0,0,0,0
361,2.7033267,-0.66907734,0.12937312,0.45141673,-0.47335264,-1.3418646,1.9785085,4.1434655,8.268825,0,1,0,0,0,0,0,0,0,0,0,0,0,0,0,0,0,0,0,0,0
362,2.8063326,-0.66475713,0.14918019,0.7262419,-0.0035811528,-3.1602623,4.206313,1.2943653,5.144391,0,1,0,0,0,0,0,0,0,0,0,0,0,0,0,0,0,0,0,0,0
363,3.0028949,-0.63579243,0.25990105,0.5941491,1.1767318,-5.2140923,2.2897546,-2.0850503,2.019958,0,1,0,0,0,0,0,0,0,0,0,0,0,0,0,0,0,0,0,0,0
364,-3.0287976,-0.54868853,0.47147974,0.17976125,2.0182908,-7.0250416,-2.9583354,-1.6361376,4.8858175,0,1,0,0,0,0,0,0,0,0,0,0,0,0,0,0,0,0,0,0,0
365,-2.8072836,-0.42084983,0.6481071,0.30865824,1.9767454,-6.711854,-8.715194,2.2472575,7.3063555,0,1,0,0,0,0,0,0,0,0,0,0,0,0,0,0,0,0,0,0,0
366,-2.6327028,-0.31966886,0.7848482,1.298289,1.8031073,-5.664699,-6.9829884,-0.8939351,4.962432,0,1,0,0,0,0,0,0,0,0,0,0,0,0,0,0,0,0,0,0,0
367,-2.5159292,-0.18225925,0.8348501,-0.08762013,0.3777835,-5.494257,-10.0068655,0.9663597,5.3933883,0,1,0,0,0,0,0,0,0,0,0,0,0,0,0,0,0,0,0,0,0
368,-2.525002,-0.18162459,0.8394975,0.2798961,0.79217136,-4.309683,-11.788152,2.0413563,6.494721,0,1,0,0,0,0,0,0,0,0,0,0,0,0,0,0,0,0,0,0,0
369,-2.4268432,-0.08738252,0.88649416,0.76565665,0.64836067,-3.146414,-11.614572,1.0274118,6.741324,0,1,0,0,0,0,0,0,0,0,0,0,0,0,0,0,0,0,0,0,0
370,-2.3521893,-0.023263715,0.90875095,0.47057843,-0.54580075,-2.3858151,-11.705551,-0.19482817,6.3259296,0,1,0,0,0,0,0,0,0,0,0,0,0,0,0,0,0,0,0,0,0
371,-2.3082912,0.022904858,0.8911104,0.22130655,-0.9846897,-1.7786145,-11.615768,0.25528175,4.746954,0,1,0,0,0,0,0,0,0,0,0,0,0,0,0,0,0,0,0,0,0
372,-2.2847414,0.058014806,0.86498207,0.046603188,-0.37429318,-1.0254725,-10.3013525,-0.252289,5.4532433,0,1,0,0,0,0,0,0,0,0,0,0,0,0,0,0,0,0,0,0,0
373,-2.2661164,0.072770305,0.8682527,0.2649824,0.015593607,-0.6046931,-10.512042,-0.6808511,6.4767647,0,1,0,0,0,0,0,0,0,0,0,0,0,0,0,0,0,0,0,0,0
374,-2.253019,0.07686655,0.8588709,0.26604766,-0.45312274,-0.26700428,-10.36001,-0.2427122,6.36304,0,1,0,0,0,0,0,0,0,0,0,0,0,0,0,0,0,0,0,0,0
375,-2.2465925,0.06519097,0.850499,0.3661825,-0.30931205,0.1889289,-9.434651,-0.3851672,6.0972834,0,1,0,0,0,0,0,0,0,0,0,0,0,0,0,0,0,0,0,0,0
376,-2.2515376,0.051660415,0.8361203,0.03275475,-0.546866,0.43287447,-9.194034,0.48751932,5.8399067,0,1,0,0,0,0,0,0,0,0,0,0,0,0,0,0,0,0,0,0,0
377,-2.2664318,0.033143345,0.82208186,-0.017312678,-0.48188487,0.7588454,-8.310574,-0.27742812,6.7341413,0,1,0,0,0,0,0,0,0,0,0,0,0,0,0,0,0,0,0,0,0
378,-2.2651281,0.03281315,0.82465583,0.066825636,-0.30932537,0.84940404,-8.946234,-0.18285716,6.386982,0,1,0,0,0,0,0,0,0,0,0,0,0,0,0,0,0,0,0,0,0
379,-2.277863,0.0073896702,0.8218149,0.33314174,0.09227933,1.1167854,-9.590274,0.32830492,6.9879265,0,1,0,0,0,0,0,0,0,0,0,0,0,0,0,0,0,0,0,0,0
380,-2.294821,-0.029546093,0.8222823,0.27561745,-0.2123863,1.4811058,-10.780192,1.3422493,7.239318,0,1,0,0,0,0,0,0,0,0,0,0,0,0,0,0,0,0,0,0,0
381,-2.3170466,-0.08394704,0.82086974,0.70704955,0.23289424,2.40469,-12.828432,3.391686,7.5182424,0,1,0,0,0,0,0,0,0,0,0,0,0,0,0,0,0,0,0,0,0
382,-2.3656545,-0.18258671,0.8322402,1.2386165,0.40653235,3.842797,-11.322479,1.8414404,8.829067,0,1,0,0,0,0,0,0,0,0,0,0,0,0,0,0,0,0,0,0,0
383,-2.4399724,-0.31133574,0.8059346,1.1992017,-0.7684543,4.3040566,-8.711602,0.163105,7.0741177,0,1,0,0,0,0,0,0,0,0,0,0,0,0,0,0,0,0,0,0,0
384,-2.534464,-0.43310615,0.7401711,1.0436732,-1.1753854,4.273164,-7.8868,3.0277674,4.5937247,0,1,0,0,0,0,0,0,0,0,0,0,0,0,0,0,0,0,0,0,0
385,-2.6596844,-0.5512269,0.6794199,0.6580474,-0.094141945,4.7994046,-5.468656,2.4040778,4.1017165,0,1,0,0,0,0,0,0,0,0,0,0,0,0,0,0,0,0,0,0,0
386,-2.803277,-0.6460223,0.61045444,0.40238392,0.2936143,4.6257663,-4.888062,1.4607623,6.1379848,0,1,0,0,0,0,0,0,0,0,0,0,0,0,0,0,0,0,0,0,0
387,-2.8037858,-0.63891053,0.605524,0.4844093,0.30320168,4.4617157,-2.3370402,1.9623476,6.1355906,0,1,0,0,0,0,0,0,0,0,0,0,0,0,0,0,0,0,0,0,0
388,-2.9582489,-0.724233,0.5183504,0.35764283,0.07416984,3.9290836,-3.5616744,3.0373442,6.5007067,0,1,0,0,0,0,0,0,0,0,0,0,0,0,0,0,0,0,0,0,0
389,-3.1151273,-0.791255,0.41880587,0.62395895,0.41611972,4.2763596,-3.9662943,5.4267573,6.0625677,0,1,0,0,0,0,0,0,0,0,0,0,0,0,0,0,0,0,0,0,0
390,2.973144,-0.85611427,0.28101778,0.6963969,0.51412404,4.3551893,1.2111667,1.9683331,6.064962,0,1,0,0,0,0,0,0,0,0,0,0,0,0,0,0,0,0,0,0,0
391,2.8100622,-0.8869663,0.12727128,-0.35288855,-0.99002934,2.6667452,2.3974938,3.1582513,3.609708,0,1,0,0,0,0,0,0,0,0,0,0,0,0,0,0,0,0,0,0,0
392,2.7083557,-0.8576463,-0.014184884,-1.0357231,-0.7961512,1.7357041,3.0140007,5.5476646,4.970812,0,1,0,0,0,0,0,0,0,0,0,0,0,0,0,0,0,0,0,0,0
393,2.6461222,-0.8383112,-0.07031987,-0.19629468,0.29254904,1.2297034,2.1125836,6.4514756,6.2505126,0,0,0,0,0,0,0,0,0,0,0,0,0,0,0,0,0,0,0,0,0
394,2.6084602,-0.8318657,-0.094102584,-0.2282526,0.344747,0.84301245,2.234688,7.856872,6.1798835,0,0,0,0,0,0,0,0,0,0,0,0,0,0,0,0,0,0,0,0,0
395,2.592301,-0.8037979,-0.1288056,-0.84611344,-0.5894955,0.4520652,1.6253637,8.627805,6.7520976,0,0,0,0,0,0,0,0,0,0,0,0,0,0,0,0,0,0,0,0,0
396,2.5830376,-0.7775595,-0.16274571,-0.78539336,-0.6459545,0.38708407,2.2071548,8.284237,6.7628717,0,0,0,0,0,0,0,0,0,0,0,0,0,0,0,0,0,0,0,0,0
397,2.5905597,-0.77750003,-0.16757199,0.13925616,0.55246794,0.07709212,3.0319571,7.546823,7.090877,0,0,0,0,0,0,0,0,0,0,0,0,0,0,0,0,0,0,0,0,0
398,2.5925527,-0.78698397,-0.14761263,0.23939101,0.5854912,-0.5418265,1.5331869,7.698855,6.6910458,0,0,0,0,0,0,0,0,0,0,0,0,0,0,0,0,0,0,0,0,0
399,2.6167512,-0.795813,-0.10833915,0.08173188,0.3181098,-0.4821717,-0.5366005,8.582315,6.864625,0,0,0,0,0,0,0,0,0,0,0,0,0,0,0,0,0,0,0,0,0
400,2.6262503,-0.8050983,-0.08599432,0.22873837,0.4587247,-0.15087447,0.42467153,7.5887218,5.923704,0,0,0,0,0,0,0,0,0,0,0,0,0,0,0,0,0,0,0,0,0
401,2.6310747,-0.8108076,-0.069564015,-0.023729298,0.23821497,-0.14235236,0.9202713,6.9554553,5.844695,0,0,0,0,0,0,0,0,0,0,0,0,0,0,0,0,0,0,0,0,0
402,2.64002,-0.80511206,-0.059001006,-0.15795262,0.12529694,-0.18922399,0.37798458,6.6849103,6.6275992,0,0,0,0,0,0,0,0,0,0,0,0,0,0,0,0,0,0,0,0,0
403,2.6429327,-0.8103504,-0.044592265,0.1946499,0.33195823,-0.08482807,0.22236149,6.930316,6.613234,0,0,0,0,0,0,0,0,0,0,0,0,0,0,0,0,0,0,0,0,0
404,2.6434882,-0.81389403,-0.040289976,0.006098106,0.06777266,-0.057131197,0.74190325,6.915951,5.7154083,0,0,0,0,0,0,0,0,0,0,0,0,0,0,0,0,0,0,0,0,0
405,2.6543987,-0.80681586,-0.02917892,-0.20908532,0.12529694,-0.21372506,0.49290627,6.894403,6.792799,0,0,0,0,0,0,0,0,0,0,0,0,0,0,0,0,0,0,0,0,0
406,2.6530626,-0.8062972,-0.027621163,0.25537,0.46085522,-0.16365764,-0.36661214,7.4618287,7.5206366,0,0,0,0,0,0,0,0,0,0,0,0,0,0,0,0,0,0,0,0,0
407,2.6591585,-0.8168469,-0.008339425,0.06894871,-0.10586545,-0.14767867,0.30256724,7.164948,6.5318313,0,0,0,0,0,0,0,0,0,0,0,0,0,0,0,0,0,0,0,0,0
408,2.6699283,-0.8161464,-0.013261194,-0.31561175,-0.5181228,-0.4374306,0.9729437,6.9782,6.0817213,0,1,0,0,0,0,0,0,0,0,0,0,0,0,0,0,0,0,0,0,0
409,2.6966474,-0.806106,-0.007413361,0.1200814,0.27549922,-0.6100034,0.43065703,7.400777,7.405715,0,1,0,0,0,0,0,0,0,0,0,0,0,0,0,0,0,0,0,0,0
410,2.7336593,-0.821194,0.031338997,0.5941241,0.536489,-0.801751,1.3201029,6.540061,7.001095,0,1,0,0,0,0,0,0,0,0,0,0,0,0,0,0,0,0,0,0,0
411,2.80297,-0.827347,0.068708524,0.14138669,-0.2539372,-1.563415,3.0558991,4.783914,6.328324,0,1,0,0,0,0,0,0,0,0,0,0,0,0,0,0,0,0,0,0,0
412,2.9428735,-0.8049743,0.13977417,-0.13452105,-0.05899701,-3.096328,2.0072389,4.3948565,5.66513,0,1,0,0,0,0,0,0,0,0,0,0,0,0,0,0,0,0,0,0,0
413,3.1412215,-0.771783,0.29558995,0.405568,1.1852318,-4.286228,2.887108,0.32471362,5.141997,0,1,0,0,0,0,0,0,0,0,0,0,0,0,0,0,0,0,0,0,0
414,-2.8606827,-0.6569672,0.49901992,0.07746656,1.1554044,-6.6766815,1.6062101,-4.6312838,4.2657194,0,1,0,0,0,0,0,0,0,0,0,0,0,0,0,0,0,0,0,0,0
415,-2.8663132,-0.63843596,0.50579053,-0.6554354,0.8358251,-8.022111,-5.596746,-2.081459,5.0414405,0,1,0,0,0,0,0,0,0,0,0,0,0,0,0,0,0,0,0,0,0
416,-2.6244357,-0.46112555,0.673478,0.84339166,2.1482308,-7.332885,-8.929475,-0.1110311,7.3638163,0,1,0,0,0,0,0,0,0,0,0,0,0,0,0,0,0,0,0,0,0
417,-2.4125605,-0.32136276,0.8367851,1.3472618,0.87097883,-6.7491198,-12.462119,2.085649,6.923283,0,1,0,0,0,0,0,0,0,0,0,0,0,0,0,0,0,0,0,0,0
418,-2.2667897,-0.18890782,0.89739585,1.1107731,-0.2091993,-4.9200606,-15.452477,4.7312417,3.6994905,0,1,0,0,0,0,0,0,0,0,0,0,0,0,0,0,0,0,0,0,0
419,-2.1844127,-0.10032886,0.9196541,0.45457017,-0.3103994,-2.9461257,-14.978425,2.6626515,1.022773,0,1,0,0,0,0,0,0,0,0,0,0,0,0,0,0,0,0,0,0,0
420,-2.1571324,-0.036591098,0.91170865,-0.41255507,-0.71413463,-1.6656778,-12.9445505,0.0062847794,5.486762,0,1,0,0,0,0,0,0,0,0,0,0,0,0,0,0,0,0,0,0,0
421,-2.1568499,-0.003732689,0.89579284,-0.18671902,-0.6502188,-0.77831256,-12.507609,0.32231942,4.2214265,0,1,0,0,0,0,0,0,0,0,0,0,0,0,0,0,0,0,0,0,0
422,-2.1774192,0.0020347484,0.8949677,-0.2857886,-0.1697845,0.08029058,-12.341212,0.42646718,4.156783,0,1,0,0,0,0,0,0,0,0,0,0,0,0,0,0,0,0,0,0,0
423,-2.2066946,-0.0011056766,0.88573325,-0.5766058,-0.38177213,0.5916175,-10.990882,-0.028431145,6.1535473,0,1,0,0,0,0,0,0,0,0,0,0,0,0,0,0,0,0,0,0,0
424,-2.238378,-0.01997143,0.8723476,-0.33159497,-0.46592802,1.0337023,-9.341277,-0.16490065,6.011092,0,1,0,0,0,0,0,0,0,0,0,0,0,0,0,0,0,0,0,0,0
425,-2.2401962,-0.020632846,0.8762307,-0.14943476,-0.17084977,1.2350372,-10.191218,0.6180033,5.6244287,0,1,0,0,0,0,0,0,0,0,0,0,0,0,0,0,0,0,0,0,0
426,-2.269884,-0.05645971,0.88088226,0.10729396,0.32023713,2.1064236,-11.9892645,1.3039421,6.6802716,0,1,0,0,0,0,0,0,0,0,0,0,0,0,0,0,0,0,0,0,0
427,-2.3167346,-0.11498362,0.88649327,0.015681226,-0.34022683,2.6933842,-11.405079,0.7269395,7.6391497,0,1,0,0,0,0,0,0,0,0,0,0,0,0,0,0,0,0,0,0,0
428,-2.3696334,-0.20197158,0.871029,1.2833328,0.41503555,3.858792,-13.051093,3.8765118,7.1746745,0,1,0,0,0,0,0,0,0,0,0,0,0,0,0,0,0,0,0,0,0
429,-2.4459293,-0.3500182,0.8768928,1.062823,-0.01639655,5.231918,-12.179604,2.9571383,5.51669,0,1,0,0,0,0,0,0,0,0,0,0,0,0,0,0,0,0,0,0,0
430,-2.5848923,-0.49222654,0.80331904,-0.045051895,-1.5375942,5.6569586,-11.292552,2.5632923,3.8682818,0,1,0,0,0,0,0,0,0,0,0,0,0,0,0,0,0,0,0,0,0
431,-2.7800083,-0.62026656,0.661787,-0.18034048,-1.262756,6.6316752,-6.962638,2.3849242,3.4026096,0,1,0,0,0,0,0,0,0,0,0,0,0,0,0,0,0,0,0,0,0
432,-3.0406783,-0.7154035,0.47402635,-0.43174288,-0.4137402,7.0279536,-0.8454525,-1.8576013,5.674707,0,1,0,0,0,0,0,0,0,0,0,0,0,0,0,0,0,0,0,0,0
433,3.0508518,-0.7687253,0.30956504,0.12219462,-0.65448993,4.746157,0.15771803,0.70419455,3.917363,0,1,0,0,0,0,0,0,0,0,0,0,0,0,0,0,0,0,0,0,0
434,3.0595157,-0.76040107,0.290349,-0.6043157,-0.3359759,3.7799625,4.2530003,1.7277158,5.3155766,0,1,0,0,0,0,0,0,0,0,0,0,0,0,0,0,0,0,0,0,0
435,3.0662456,-0.7485691,0.27187708,-0.48074505,-0.052615542,2.1522384,5.2801127,1.5206174,7.192631,0,1,0,0,0,0,0,0,0,0,0,0,0,0,0,0,0,0,0,0,0
436,3.0112941,-0.7569563,0.21758397,0.15415256,0.77722543,0.52877545,1.4685434,7.8700404,4.8594813,0,1,0,0,0,0,0,0,0,0,0,0,0,0,0,0,0,0,0,0,0
437,2.9895966,-0.7689166,0.22970535,-0.089793004,1.1159796,0.64488924,0.6976105,7.9430633,5.831527,0,0,0,0,0,0,0,0,0,0,0,0,0,0,0,0,0,0,0,0,0
438,2.961916,-0.7586324,0.22658272,-0.7097769,0.29785645,0.37324682,0.9873089,6.6537857,7.3458595,0,0,0,0,0,0,0,0,0,0,0,0,0,0,0,0,0,0,0,0,0
439,2.9481719,-0.7361156,0.21378706,-0.44559133,-0.063268185,0.08136436,-0.5354034,7.546823,8.27481,0,0,0,0,0,0,0,0,0,0,0,0,0,0,0,0,0,0,0,0,0
440,2.9367445,-0.7391301,0.20791641,0.06680087,0.17322052,0.2656551,-0.38217443,7.9478517,7.338677,0,0,0,0,0,0,0,0,0,0,0,0,0,0,0,0,0,0,0,0,0
441,2.9237578,-0.74053043,0.20722014,-0.12814252,0.29466066,0.22837086,-0.39055416,7.6018896,6.8981442,0,0,0,0,0,0,0,0,0,0,0,0,0,0,0,0,0,0,0,0,0
442,2.9128768,-0.73173034,0.19937426,-0.30071536,0.015561383,0.16338973,-0.65990186,7.1003046,8.083274,0,0,0,0,0,0,0,0,0,0,0,0,0,0,0,0,0,0,0,0,0
443,2.9109714,-0.731367,0.19798306,0.14136937,0.14552364,0.2326319,-1.1219828,7.5037274,8.594436,0,0,0,0,0,0,0,0,0,0,0,0,0,0,0,0,0,0,0,0,0
444,2.8988152,-0.74448663,0.1959228,0.48971084,0.1316752,0.29122147,-0.4575918,6.9841857,6.4875383,0,0,0,0,0,0,0,0,0,0,0,0,0,0,0,0,0,0,0,0,0
445,2.889129,-0.7599133,0.18774314,-0.079150744,-0.3562236,0.18257114,-0.11043255,6.6693482,6.4444427,0,0,0,0,0,0,0,0,0,0,0,0,0,0,0,0,0,0,0,0,0
446,2.8778546,-0.75869495,0.16881037,0.11472738,-0.08032014,0.07391417,-0.67067575,6.9374986,6.7760396,0,0,0,0,0,0,0,0,0,0,0,0,0,0,0,0,0,0,0,0,0
447,2.870349,-0.773957,0.17126985,0.45135093,0.15403804,0.25181332,-0.448015,7.2200146,6.2780457,0,0,0,0,0,0,0,0,0,0,0,0,0,0,0,0,0,0,0,0,0
448,2.8613791,-0.7822137,0.15638138,0.057203103,-0.3008299,0.20387644,0.37918168,6.359299,6.5593643,0,0,0,0,0,0,0,0,0,0,0,0,0,0,0,0,0,0,0,0,0
449,2.862609,-0.78166133,0.13901101,0.033767283,-0.36154994,-0.1753577,0.16011223,6.6849103,6.2636805,0,1,0,0,0,0,0,0,0,0,0,0,0,0,0,0,0,0,0,0,0
450,2.8671927,-0.79649526,0.15086544,0.43856776,0.30317506,-0.0826797,-0.10923545,7.7072344,6.0493994,0,1,0,0,0,0,0,0,0,0,0,0,0,0,0,0,0,0,0,0,0
451,2.8745298,-0.7982113,0.1467546,0.05933363,-0.0664717,-0.10291972,0.84006554,6.736386,6.339098,0,1,0,0,0,0,0,0,0,0,0,0,0,0,0,0,0,0,0,0,0
452,2.8803265,-0.79617274,0.13875632,-0.11536974,-0.34130993,-0.4864149,1.783381,5.952285,6.8933554,0,1,0,0,0,0,0,0,0,0,0,0,0,0,0,0,0,0,0,0,0
453,2.9155476,-0.7850085,0.13499662,0.12111897,-0.2912425,-1.2715148,3.4629135,4.2883143,7.0932713,0,1,0,0,0,0,0,0,0,0,0,0,0,0,0,0,0,0,0,0,0
454,2.9962327,-0.774174,0.15400249,0.07211681,-0.34876677,-2.790582,4.857536,2.6111763,4.5769653,0,1,0,0,0,0,0,0,0,0,0,0,0,0,0,0,0,0,0,0,0
455,-3.1267226,-0.73117715,0.23404565,-0.6075219,0.18599597,-4.714449,3.2749686,-0.8173206,3.7904701,0,1,0,0,0,0,0,0,0,0,0,0,0,0,0,0,0,0,0,0,0
456,-2.9079738,-0.63037115,0.3961341,-0.8408148,1.2299551,-6.267605,-1.3626001,-0.33608606,3.6276646,0,1,0,0,0,0,0,0,0,0,0,0,0,0,0,0,0,0,0,0,0
457,-2.7028012,-0.48974615,0.573038,-0.90899175,2.0704486,-6.647904,-6.751948,-0.19482817,6.771251,0,1,0,0,0,0,0,0,0,0,0,0,0,0,0,0,0,0,0,0,0
458,-2.530959,-0.33598402,0.7163119,-0.03227911,1.8765706,-6.4625483,-10.170868,1.1902175,10.417621,0,1,0,0,0,0,0,0,0,0,0,0,0,0,0,0,0,0,0,0,0
459,-2.3826914,-0.23686887,0.79704976,1.084118,0.63234174,-5.241755,-13.564649,5.0939636,6.7880106,0,1,0,0,0,0,0,0,0,0,0,0,0,0,0,0,0,0,0,0,0
460,-2.3164349,-0.17102525,0.82267326,0.5301805,-0.21134767,-3.2837994,-13.95251,5.0508676,3.2014966,0,1,0,0,0,0,0,0,0,0,0,0,0,0,0,0,0,0,0,0,0
461,-2.302164,-0.1181035,0.82808286,-0.28794256,-0.2582193,-2.0172,-12.415432,3.7065234,4.2310033,0,1,0,0,0,0,0,0,0,0,0,0,0,0,0,0,0,0,0,0,0
462,-2.3117898,-0.120006286,0.8335176,-0.3742362,-0.24011539,-1.045674,-11.494862,2.7931356,5.853075,0,1,0,0,0,0,0,0,0,0,0,0,0,0,0,0,0,0,0,0,0
463,-2.3115242,-0.0919539,0.83245116,-0.13881275,0.15296718,-0.26590037,-10.841245,2.0389621,5.3574753,0,1,0,0,0,0,0,0,0,0,0,0,0,0,0,0,0,0,0,0,0
464,-2.3165636,-0.09093079,0.8471226,-0.045069475,0.24031886,0.28590658,-10.581473,1.9719244,6.527043,0,1,0,0,0,0,0,0,0,0,0,0,0,0,0,0,0,0,0,0,0
465,-2.3315516,-0.09836932,0.8445227,-0.36038774,-0.653438,0.6033554,-8.986936,1.6570868,6.5880947,0,1,0,0,0,0,0,0,0,0,0,0,0,0,0,0,0,0,0,0,0
466,-2.3551166,-0.10958435,0.82195204,-0.124964304,-0.3626208,0.7088166,-7.3026147,1.1878233,5.7405477,0,1,0,0,0,0,0,0,0,0,0,0,0,0,0,0,0,0,0,0,0
467,-2.3704312,-0.12296932,0.81762344,-0.1430738,-0.0025614284,0.54157007,-6.7375827,1.338658,6.232556,0,1,0,0,0,0,0,0,0,0,0,0,0,0,0,0,0,0,0,0,0
468,-2.3788557,-0.13162124,0.81832045,-0.017372599,0.10076922,0.35621405,-6.095937,0.9555858,6.1571383,0,1,0,0,0,0,0,0,0,0,0,0,0,0,0,0,0,0,0,0,0
469,-2.379068,-0.13305487,0.8187857,-0.06957056,6.3436496E-4,0.0430263,-6.65618,1.646313,6.2780457,0,1,0,0,0,0,0,0,0,0,0,0,0,0,0,0,0,0,0,0,0
470,-2.375214,-0.13432553,0.81994367,7.3689665E-4,0.014482803,-0.014497982,-6.963835,2.005443,6.1104517,0,1,0,0,0,0,0,0,0,0,0,0,0,0,0,0,0,0,0,0,0
471,-2.3740773,-0.13606068,0.82180965,0.0060632187,0.014482803,-0.041129593,-7.319374,2.0784664,5.651962,0,1,0,0,0,0,0,0,0,0,0,0,0,0,0,0,0,0,0,0,0
472,-2.3722827,-0.13707714,0.8246142,0.00393269,0.05709338,0.05794,-8.1202345,2.5501242,5.814768,0,1,0,0,0,0,0,0,0,0,0,0,0,0,0,0,0,0,0,0,0
473,-2.376146,-0.14231007,0.82997715,0.045478,0.008091216,0.33810455,-9.962572,3.260005,6.3379006,0,1,0,0,0,0,0,0,0,0,0,0,0,0,0,0,0,0,0,0,0
474,-2.389805,-0.16200836,0.8361146,0.40553737,0.2211441,1.202034,-11.505635,4.3373957,6.079327,0,0,0,0,0,0,0,0,0,0,0,0,0,0,0,0,0,0,0,0,0
475,-2.4222913,-0.21662262,0.8429975,0.5365649,0.2179483,2.2971258,-10.804134,2.8709471,7.7816043,0,0,0,0,0,0,0,0,0,0,0,0,0,0,0,0,0,0,0,0,0
476,-2.473994,-0.3003155,0.8419911,1.1352435,0.087986045,3.042811,-12.332832,3.8609495,6.4145155,0,0,0,0,0,0,0,0,0,0,0,0,0,0,0,0,0,0,0,0,0
477,-2.5607839,-0.4060368,0.8144697,0.3480131,-0.7759434,3.913132,-12.597391,4.53372,3.1200938,0,0,0,0,0,0,0,0,0,0,0,0,0,0,0,0,0,0,0,0,0
478,-2.7198164,-0.5023234,0.7387445,-0.55960816,-0.25397608,5.0977163,-10.264242,1.6762404,5.620837,0,0,0,0,0,0,0,0,0,0,0,0,0,0,0,0,0,0,0,0,0
479,-2.880904,-0.637086,0.70882,0.653728,1.3694869,5.660176,-11.910255,3.927987,6.7341413,0,0,0,0,0,0,0,0,0,0,0,0,0,0,0,0,0,0,0,0,0
480,-3.1053607,-0.76638985,0.6219787,0.30538654,1.4930576,6.566716,-9.091084,0.41090485,6.092495,0,0,0,0,0,0,0,0,0,0,0,0,0,0,0,0,0,0,0,0,0
481,-3.1108658,-0.7541133,0.62789667,-1.2349858,0.1391065,6.2215705,-8.678083,1.6798317,6.637176,0,0,0,0,0,0,0,0,0,0,0,0,0,0,0,0,0,0,0,0,0
482,2.8820887,-0.81061226,0.43396482,-0.5351071,1.208632,6.889491,-5.7248354,1.64751,6.7748427,0,0,0,0,0,0,0,0,0,0,0,0,0,0,0,0,0,0,0,0,0
483,2.5484774,-0.8622878,0.24700984,-0.16013402,2.5434084,6.731832,-8.242338,1.670255,8.686613,0,0,0,0,0,0,0,0,0,0,0,0,0,0,0,0,0,0,0,0,0
484,2.19841,-0.8888915,0.079990864,0.710187,3.7034812,7.8737955,-4.112341,2.4447792,9.889699,0,0,0,0,0,0,0,0,0,0,0,0,0,0,0,0,0,0,0,0,0
485,1.8017112,-0.8538402,-0.1533184,-1.3223375,2.3143764,6.570977,5.216666,-5.0789995,9.316288,0,0,0,0,0,0,0,0,0,0,0,0,0,0,0,0,0,0,0,0,0
486,1.619688,-0.772394,-0.22918159,-0.05893389,2.578562,3.7331123,4.34398,-0.27144262,15.342493,0,0,0,0,0,0,0,0,0,0,0,0,0,0,0,0,0,0,0,0,0
487,1.4746296,-0.808554,-0.23593459,2.402892,3.589498,3.006602,6.176741,2.1622634,12.113913,0,0,0,0,0,0,0,0,0,0,0,0,0,0,0,0,0,0,0,0,0
488,1.3814533,-0.8374991,-0.25026003,1.596487,2.4837534,2.0265589,7.3355346,2.3526025,8.4843025,0,0,0,0,0,0,0,0,0,0,0,0,0,0,0,0,0,0,0,0,0
489,1.3450073,-0.84700274,-0.24547763,0.8742378,1.8105063,1.1264104,5.4489036,3.9339726,8.684218,0,0,0,0,0,0,0,0,0,0,0,0,0,0,0,0,0,0,0,0,0
490,1.390217,-0.83917856,-0.25564206,0.92537045,1.7710916,0.9399891,6.2988453,4.512172,6.711396,0,0,0,0,0,0,0,0,0,0,0,0,0,0,0,0,0,0,0,0,0
491,1.3550057,-0.85309494,-0.24342336,0.6878165,1.6326072,0.5703423,4.5187564,5.0508676,7.624784,0,0,0,0,0,0,0,0,0,0,0,0,0,0,0,0,0,0,0,0,0
492,1.3855686,-0.8668472,-0.22758201,0.782625,1.1351287,0.44357583,4.9916115,5.2136736,5.5418286,0,0,0,0,0,0,0,0,0,0,0,0,0,0,0,0,0,0,0,0,0
493,1.3297713,-0.88301754,-0.22231154,0.17116323,0.9678822,0.18471658,4.062661,6.4239426,5.0055275,0,0,0,0,0,0,0,0,0,0,0,0,0,0,0,0,0,0,0,0,0
494,1.3062176,-0.8809716,-0.20304467,0.22655697,1.0946487,0.307222,3.3898904,6.477812,6.3977556,0,0,0,0,0,0,0,0,0,0,0,0,0,0,0,0,0,0,0,0,0
495,1.2559459,-0.8885358,-0.19336297,0.29048005,0.6951801,0.13784042,4.2673655,6.848913,5.284452,0,0,0,0,0,0,0,0,0,0,0,0,0,0,0,0,0,0,0,0,0
496,1.2088985,-0.8850063,-0.19395635,-0.25173956,0.46082193,-0.32022327,6.060622,6.4598556,3.4229603,0,1,0,0,0,0,0,0,0,0,0,0,0,0,0,0,0,0,0,0,0
497,1.3261932,-0.87374955,-0.12839347,-0.2773059,1.073349,-1.2587212,5.8810573,5.228039,6.216994,0,1,0,0,0,0,0,0,0,0,0,0,0,0,0,0,0,0,0,0,0
498,1.3765575,-0.882207,-0.025136154,0.24467367,0.9710836,-2.015059,4.1907506,6.4011974,7.1519294,0,1,0,0,0,0,0,0,0,0,0,0,0,0,0,0,0,0,0,0,0
499,1.589683,-0.87557,0.092927,0.14986514,0.63126427,-2.9833844,6.6232595,4.291906,3.0482676,0,1,0,0,0,0,0,0,0,0,0,0,0,0,0,0,0,0,0,0,0
500,1.6328536,-0.8599062,0.074480675,-0.83230865,0.41608083,-4.9285574,5.1867385,0.65152216,4.749348,0,1,0,0,0,0,0,0,0,0,0,0,0,0,0,0,0,0,0,0,0
501,1.906063,-0.79574424,0.27704012,0.4864887,1.8967984,-6.1631985,-0.3211223,2.503437,5.26051,0,1,0,0,0,0,0,0,0,0,0,0,0,0,0,0,0,0,0,0,0
502,2.2113674,-0.71504056,0.54159087,0.5354909,1.7370087,-6.9195366,-0.7233482,-1.6935984,4.7098436,0,1,0,0,0,0,0,0,0,0,0,0,0,0,0,0,0,0,0,0,0
503,2.4683857,-0.54576373,0.7235197,-1.3148735,-0.7024468,-8.570696,-6.616676,-5.3399677,6.9424367,0,1,0,0,0,0,0,0,0,0,0,0,0,0,0,0,0,0,0,0,0
504,2.652803,-0.31339088,0.7997977,0.70593315,1.1883975,-7.582131,-19.359814,10.2403,9.395296,0,1,0,0,0,0,0,0,0,0,0,0,0,0,0,0,0,0,0,0,0
505,2.8310294,-0.27038,0.9532824,3.1816077,2.5934813,-3.5447786,-15.116092,5.981015,3.1967082,0,1,0,0,0,0,0,0,0,0,0,0,0,0,0,0,0,0,0,0,0
506,2.890507,-0.20565131,0.9640088,-3.371562E-4,-0.6971205,-2.4816449,-10.08348,-0.18166006,5.721394,0,1,0,0,0,0,0,0,0,0,0,0,0,0,0,0,0,0,0,0,0
507,2.9363477,-0.12764153,0.9392215,0.22336838,-0.73440474,-2.7128072,-9.296985,-0.102651395,5.7261825,0,1,0,0,0,0,0,0,0,0,0,0,0,0,0,0,0,0,0,0,0
508,3.0062091,-0.09718964,0.9811464,1.6018206,0.7260728,-2.3367689,-13.144466,3.1127615,2.9046156,0,1,0,0,0,0,0,0,0,0,0,0,0,0,0,0,0,0,0,0,0
509,2.9855978,-0.100318044,0.9899965,0.8401565,0.39477554,-1.0467336,-13.063064,3.4228106,1.936161,0,1,0,0,0,0,0,0,0,0,0,0,0,0,0,0,0,0,0,0,0
510,3.005025,-0.088498965,1.004727,-0.33056912,-0.56396246,-0.28506956,-10.63654,1.6690578,4.41416,0,1,0,0,0,0,0,0,0,0,0,0,0,0,0,0,0,0,0,0,0
511,2.9838834,-0.07668805,0.9826758,-0.414725,-0.9336092,0.15594992,-9.974544,2.0820577,4.8235683,0,1,0,0,0,0,0,0,0,0,0,0,0,0,0,0,0,0,0,0,0
512,2.9573138,-0.0818324,0.9596101,-0.15693982,-0.17514758,0.6811309,-8.910321,1.3446435,4.0634093,0,1,0,0,0,0,0,0,0,0,0,0,0,0,0,0,0,0,0,0,0
513,2.9390495,-0.098260164,0.9602684,-0.20381145,0.08797273,0.74717724,-7.785046,0.28999767,5.994333,0,1,0,0,0,0,0,0,0,0,0,0,0,0,0,0,0,0,0,0,0
514,2.9269233,-0.10875753,0.95255613,-0.21339883,-0.39565733,0.4020316,-7.476194,0.25647885,6.404938,0,1,0,0,0,0,0,0,0,0,0,0,0,0,0,0,0,0,0,0,0
515,2.914129,-0.1130611,0.9332285,-0.06532708,-0.4883353,0.20176189,-7.982568,1.7983447,5.507113,0,1,0,0,0,0,0,0,0,0,0,0,0,0,0,0,0,0,0,0,0
516,2.907888,-0.12724578,0.93214834,0.26703542,0.004882107,0.35409468,-8.188469,1.8881273,5.5274634,0,1,0,0,0,0,0,0,0,0,0,0,0,0,0,0,0,0,0,0,0
517,2.8978622,-0.14675972,0.932454,0.28621018,-0.03772847,0.46701273,-8.615834,2.1119852,5.2856493,0,1,0,0,0,0,0,0,0,0,0,0,0,0,0,0,0,0,0,0,0
518,2.876819,-0.1711329,0.91855615,0.17648795,-0.4350721,0.7109583,-9.727941,2.9918542,5.865046,0,1,0,0,0,0,0,0,0,0,0,0,0,0,0,0,0,0,0,0,0
519,2.8649888,-0.17229302,0.9218799,0.06996151,-0.90698427,1.2499821,-9.286211,2.4495676,4.906168,0,1,0,0,0,0,0,0,0,0,0,0,0,0,0,0,0,0,0,0,0
520,2.828169,-0.20898771,0.8900184,0.22122906,-0.32534987,1.6558478,-10.229526,2.8649616,5.6878753,0,1,0,0,0,0,0,0,0,0,0,0,0,0,0,0,0,0,0,0,0
521,2.7900136,-0.26840693,0.8895444,1.1948807,0.26693717,2.5410826,-12.757803,4.7767315,7.3662105,0,1,0,0,0,0,0,0,0,0,0,0,0,0,0,0,0,0,0,0,0
522,2.747752,-0.3693392,0.8840842,0.5344168,-1.0678391,3.6446965,-11.740268,3.2683847,4.2669163,0,1,0,0,0,0,0,0,0,0,0,0,0,0,0,0,0,0,0,0,0
523,2.641045,-0.46477652,0.8075599,-0.16546193,-1.050795,4.314748,-12.748226,5.4878097,3.9257426,0,0,0,0,0,0,0,0,0,0,0,0,0,0,0,0,0,0,0,0,0
524,2.4978034,-0.59712946,0.75843555,0.7037938,1.3236794,6.105458,-12.535142,5.2292356,5.769278,0,0,0,0,0,0,0,0,0,0,0,0,0,0,0,0,0,0,0,0,0
525,2.2993286,-0.78495336,0.7212948,1.3642578,2.5615168,7.6287856,-13.614927,2.3753474,8.837447,0,0,0,0,0,0,0,0,0,0,0,0,0,0,0,0,0,0,0,0,0
526,1.9940436,-0.92749023,0.50033164,0.026285667,-0.041989528,7.7001586,-4.718074,-1.5762825,5.781249,0,0,0,0,0,0,0,0,0,0,0,0,0,0,0,0,0,0,0,0,0
527,1.6454438,-0.89619815,0.074106075,-2.3641677,-3.54884,6.3749695,0.9466075,0.5102642,4.878635,0,0,0,0,0,0,0,0,0,0,0,0,0,0,0,0,0,0,0,0,0
528,1.6899639,-0.88481647,0.05161763,-0.18251042,-1.8220496,4.8218164,5.568614,2.1778257,3.1919198,0,0,0,0,0,0,0,0,0,0,0,0,0,0,0,0,0,0,0,0,0
529,1.4985152,-0.8727616,-0.20239666,1.1203079,0.9785306,3.2090063,8.314763,2.8853123,1.901445,0,0,0,0,0,0,0,0,0,0,0,0,0,0,0,0,0,0,0,0,0
530,1.3887595,-0.8753574,-0.299324,0.63028634,1.3662869,1.3309451,7.50672,4.2428246,5.2234,0,0,0,0,0,0,0,0,0,0,0,0,0,0,0,0,0,0,0,0,0
531,1.3931422,-0.8768195,-0.30916935,0.3352081,0.7601514,0.4627546,5.368698,5.919963,6.0039096,0,0,0,0,0,0,0,0,0,0,0,0,0,0,0,0,0,0,0,0,0
532,1.3215027,-0.88288814,-0.31202835,0.4459956,0.75908613,0.1271963,5.0789995,6.5915365,5.414936,0,0,0,0,0,0,0,0,0,0,0,0,0,0,0,0,0,0,0,0,0
533,1.2946931,-0.8956771,-0.29414946,0.43214715,0.7516293,-0.11887978,3.850774,7.0751653,6.0122895,0,0,0,0,0,0,0,0,0,0,0,0,0,0,0,0,0,0,0,0,0
534,1.2679383,-0.90207183,-0.28754878,0.03160773,-0.016426377,-0.27334312,4.1548376,7.192481,5.284452,0,0,0,0,0,0,0,0,0,0,0,0,0,0,0,0,0,0,0,0,0
535,1.2772486,-0.90331817,-0.27687687,-0.021655494,-0.09312542,-0.51622343,3.0116065,7.5396404,5.6316113,0,0,0,0,0,0,0,0,0,0,0,0,0,0,0,0,0,0,0,0,0
536,1.2767973,-0.91948754,-0.26490316,0.41084185,0.16786437,-0.2946484,2.0060418,8.481759,5.9787707,0,0,0,0,0,0,0,0,0,0,0,0,0,0,0,0,0,0,0,0,0
537,1.2605317,-0.9313398,-0.2679828,0.28194487,-0.118691765,-0.2467115,2.9924529,7.740753,4.532673,0,0,0,0,0,0,0,0,0,0,0,0,0,0,0,0,0,0,0,0,0
538,1.2397578,-0.93328834,-0.2724823,-0.069592394,-0.2699593,-0.39797905,2.3352444,8.194454,4.347122,0,0,0,0,0,0,0,0,0,0,0,0,0,0,0,0,0,0,0,0,0
539,1.2572287,-0.9355291,-0.25838447,7.1505876E-4,-0.06329801,-0.3340632,0.7849989,8.599074,5.3933883,0,0,0,0,0,0,0,0,0,0,0,0,0,0,0,0,0,0,0,0,0
540,1.2539263,-0.9427115,-0.2512409,0.20737636,0.00700944,-0.11887978,1.7307086,8.067562,4.6870985,0,0,0,0,0,0,0,0,0,0,0,0,0,0,0,0,0,0,0,0,0
541,1.2447529,-0.94970155,-0.25128236,-0.08237556,-0.31150463,-0.33512846,1.8180969,7.9478517,4.538658,0,0,0,0,0,0,0,0,0,0,0,0,0,0,0,0,0,0,0,0,0
542,1.258747,-0.9507402,-0.24137184,-0.08024504,-0.15171497,-0.37986958,1.0890625,8.322544,4.7577276,0,1,0,0,0,0,0,0,0,0,0,0,0,0,0,0,0,0,0,0,0
543,1.2619474,-0.9556196,-0.22658202,0.076348834,0.13271064,-0.39584854,1.9533693,7.644985,4.6176667,0,1,0,0,0,0,0,0,0,0,0,0,0,0,0,0,0,0,0,0,0
544,1.2825334,-0.96097517,-0.19637603,-0.0024807346,0.050685283,-0.75484264,2.34123,7.63062,4.776881,0,1,0,0,0,0,0,0,0,0,0,0,0,0,0,0,0,0,0,0,0
545,1.3070928,-0.959863,-0.15608992,-0.28160053,-0.16344859,-1.3620303,3.8196495,6.441899,3.4337342,0,1,0,0,0,0,0,0,0,0,0,0,0,0,0,0,0,0,0,0,0
546,1.4890586,-0.94372946,-0.061529785,-0.5095671,0.23496032,-2.1481955,5.2633533,4.9287634,4.144812,0,1,0,0,0,0,0,0,0,0,0,0,0,0,0,0,0,0,0,0,0
547,1.5316806,-0.92633516,-0.078618385,-0.7247505,0.378771,-4.042236,6.5717845,0.614412,5.046229,0,1,0,0,0,0,0,0,0,0,0,0,0,0,0,0,0,0,0,0,0
548,1.809475,-0.8716081,0.10820901,-0.6789442,0.709003,-6.288878,3.5993829,-1.7019781,3.7389948,0,1,0,0,0,0,0,0,0,0,0,0,0,0,0,0,0,0,0,0,0
549,2.1378076,-0.7625819,0.3752322,-1.0954626,1.1894373,-8.02739,-1.9934722,-5.046678,2.7944822,0,1,0,0,0,0,0,0,0,0,0,0,0,0,0,0,0,0,0,0,0
550,2.4343822,-0.5760462,0.6093444,-1.604659,1.160675,-8.615416,-11.29734,-0.004489128,6.729353,0,1,0,0,0,0,0,0,0,0,0,0,0,0,0,0,0,0,0,0,0
551,2.631496,-0.37684864,0.7628743,0.01454299,1.877598,-6.631893,-14.359524,6.1234703,8.997859,0,1,0,0,0,0,0,0,0,0,0,0,0,0,0,0,0,0,0,0,0
552,2.7704616,-0.26765543,0.8409259,0.26381487,-0.12616433,-4.6068254,-12.312482,0.38097733,7.6283755,0,1,0,0,0,0,0,0,0,0,0,0,0,0,0,0,0,0,0,0,0
553,2.8459885,-0.15414768,0.8255328,-0.22407624,-0.8484136,-3.89949,-13.133693,1.7145476,5.6842837,0,1,0,0,0,0,0,0,0,0,0,0,0,0,0,0,0,0,0,0,0
554,2.9122925,-0.10123976,0.8730187,0.9136262,1.0094075,-2.6840234,-15.697883,3.8465843,5.2676926,0,1,0,0,0,0,0,0,0,0,0,0,0,0,0,0,0,0,0,0,0
555,2.9243734,-0.079116,0.87611604,0.19244215,-0.17942755,-1.1031711,-15.301642,2.978686,6.0039096,0,1,0,0,0,0,0,0,0,0,0,0,0,0,0,0,0,0,0,0,0
556,2.9071653,-0.073579356,0.8290263,-0.22514151,-1.579185,-0.037906636,-11.730691,1.2129624,5.4460607,0,1,0,0,0,0,0,0,0,0,0,0,0,0,0,0,0,0,0,0,0
557,2.8978593,-0.07049176,0.8359923,-0.28373104,-1.1829066,0.2784769,-8.147768,-0.71436995,3.382259,0,1,0,0,0,0,0,0,0,0,0,0,0,0,0,0,0,0,0,0,0
558,2.876862,-0.06981148,0.809408,-0.028067587,0.34468254,0.087794565,-8.591892,0.37140054,4.7194204,0,1,0,0,0,0,0,0,0,0,0,0,0,0,0,0,0,0,0,0,0
559,2.8700595,-0.07202876,0.83027524,-0.07600448,0.32124674,0.13999252,-9.125799,0.9208698,6.421698,0,1,0,0,0,0,0,0,0,0,0,0,0,0,0,0,0,0,0,0,0
560,2.8565986,-0.07303939,0.8320335,-0.2645563,-0.38076252,0.27634636,-8.813355,0.99868137,6.1942487,0,1,0,0,0,0,0,0,0,0,0,0,0,0,0,0,0,0,0,0,0
561,2.8354442,-0.07776615,0.82174253,-0.24857733,-0.19540651,0.4137655,-7.9789762,1.0010756,5.0438347,0,1,0,0,0,0,0,0,0,0,0,0,0,0,0,0,0,0,0,0,0
562,2.8174243,-0.08159495,0.82765067,-0.25922996,0.31378987,0.42654866,-7.9442606,0.7257424,6.5593643,0,1,0,0,0,0,0,0,0,0,0,0,0,0,0,0,0,0,0,0,0
563,2.8011622,-0.09218971,0.83605766,-0.03872023,0.16997918,0.4734203,-8.934263,1.3949218,7.0585556,0,1,0,0,0,0,0,0,0,0,0,0,0,0,0,0,0,0,0,0,0
564,2.7699575,-0.114915,0.8329324,0.016673518,-0.21458128,0.9187008,-9.930251,2.4866776,6.0158806,0,1,0,0,0,0,0,0,0,0,0,0,0,0,0,0,0,0,0,0,0
565,2.7219455,-0.14619099,0.81727344,-0.2017057,-0.4414826,1.4438761,-9.996092,1.9348142,6.1451674,0,1,0,0,0,0,0,0,0,0,0,0,0,0,0,0,0,0,0,0,0
566,2.706704,-0.14868398,0.8214906,0.36608025,0.19234973,2.1096663,-12.623728,4.093187,7.612813,0,1,0,0,0,0,0,0,0,0,0,0,0,0,0,0,0,0,0,0,0
567,2.6553895,-0.2184183,0.8295436,1.1895297,0.53962594,3.614885,-14.650419,4.297891,8.712949,0,1,0,0,0,0,0,0,0,0,0,0,0,0,0,0,0,0,0,0,0
568,2.590419,-0.33987176,0.83612305,1.3791467,-0.3306951,5.019969,-12.945748,2.6255414,6.1894603,0,1,0,0,0,0,0,0,0,0,0,0,0,0,0,0,0,0,0,0,0
569,2.4799829,-0.48021927,0.7676531,-0.33486375,-1.8966339,5.4077253,-11.88392,2.6877906,4.857087,0,1,0,0,0,0,0,0,0,0,0,0,0,0,0,0,0,0,0,0,0
570,2.2921886,-0.59756094,0.62770534,0.7240091,-0.37969726,7.0716686,-10.405499,3.7041292,5.865046,0,1,0,0,0,0,0,0,0,0,0,0,0,0,0,0,0,0,0,0,0
571,2.0474312,-0.7689284,0.5150364,1.5517195,1.3140732,7.956903,-7.51091,-0.50727147,5.1276317,0,1,0,0,0,0,0,0,0,0,0,0,0,0,0,0,0,0,0,0,0
572,1.7365122,-0.8746131,0.27591187,0.5567626,0.26798353,7.372073,1.1082162,-2.6632502,4.5973163,0,0,0,0,0,0,0,0,0,0,0,0,0,0,0,0,0,0,0,0,0
573,1.5202109,-0.8478237,-0.005411978,-1.2051848,-2.1395142,4.3935933,5.0766053,-0.75507134,3.3188124,0,0,0,0,0,0,0,0,0,0,0,0,0,0,0,0,0,0,0,0,0
574,1.4622759,-0.80348325,-0.17115761,-1.020894,-1.8305874,2.478248,5.604527,4.8557405,3.5618238,0,0,0,0,0,0,0,0,0,0,0,0,0,0,0,0,0,0,0,0,0
575,1.4290943,-0.7887172,-0.23643054,0.09017676,0.3968805,1.8859609,5.992388,4.3326073,4.4440875,0,0,0,0,0,0,0,0,0,0,0,0,0,0,0,0,0,0,0,0,0
576,1.4770496,-0.78326994,-0.245278,0.5535668,1.0509529,0.7993912,5.4680576,4.944326,6.778434,0,0,0,0,0,0,0,0,0,0,0,0,0,0,0,0,0,0,0,0,0
577,1.3898147,-0.7933897,-0.24620779,0.080589384,0.108193845,0.09525142,4.654029,6.4957685,6.6120367,0,0,0,0,0,0,0,0,0,0,0,0,0,0,0,0,0,0,0,0,0
578,1.3703547,-0.7905973,-0.25419813,-0.09623732,-0.17942196,-0.21900639,3.371934,6.9231334,6.2002344,0,0,0,0,0,0,0,0,0,0,0,0,0,0,0,0,0,0,0,0,0
579,1.3629817,-0.79530954,-0.24719532,0.55570453,0.85708034,-0.17106949,2.841618,7.5959044,6.481553,0,0,0,0,0,0,0,0,0,0,0,0,0,0,0,0,0,0,0,0,0
580,1.3512385,-0.8220271,-0.21414891,0.6579699,0.66533273,-0.35109916,2.5363574,7.5192895,6.732944,0,0,0,0,0,0,0,0,0,0,0,0,0,0,0,0,0,0,0,0,0
581,1.3568392,-0.83347315,-0.20741275,0.009223859,-0.43508542,-0.43632033,1.6026188,7.9358807,5.746533,0,0,0,0,0,0,0,0,0,0,0,0,0,0,0,0,0,0,0,0,0
582,1.3536124,-0.8423553,-0.20745008,0.1967104,-0.11763662,-0.25629064,1.5631144,8.153753,5.224597,0,0,0,0,0,0,0,0,0,0,0,0,0,0,0,0,0,0,0,0,0
583,1.3430355,-0.8602394,-0.19527024,0.4182854,0.27438068,-0.23392008,1.7845781,7.641394,5.250933,0,0,0,0,0,0,0,0,0,0,0,0,0,0,0,0,0,0,0,0,0
584,1.3476875,-0.86206126,-0.19709843,-0.07706256,-0.43934646,-0.34896865,1.2913725,7.615058,5.1252375,0,0,0,0,0,0,0,0,0,0,0,0,0,0,0,0,0,0,0,0,0
585,1.3306537,-0.86506766,-0.19895978,-0.045104627,-0.2891442,-0.32766336,1.4649521,8.195652,4.906168,0,0,0,0,0,0,0,0,0,0,0,0,0,0,0,0,0,0,0,0,0
586,1.3352295,-0.865724,-0.19640765,0.16475247,0.2381617,-0.29783595,2.306514,7.164948,6.291214,0,1,0,0,0,0,0,0,0,0,0,0,0,0,0,0,0,0,0,0,0
587,1.3150833,-0.871908,-0.18343078,0.1455777,-0.17835669,-0.71435434,3.4964323,6.5173163,5.946449,0,1,0,0,0,0,0,0,0,0,0,0,0,0,0,0,0,0,0,0,0
588,1.428865,-0.877583,-0.17251745,-0.17293637,-0.4990013,-1.466431,4.8156376,5.943905,4.3507133,0,1,0,0,0,0,0,0,0,0,0,0,0,0,0,0,0,0,0,0,0
589,1.5766392,-0.8657363,-0.12098527,-0.17932795,0.15187529,-2.570045,6.7621236,2.4926631,4.3375454,0,1,0,0,0,0,0,0,0,0,0,0,0,0,0,0,0,0,0,0,0
590,1.8357016,-0.84650964,0.040782355,-0.43286088,0.29355544,-5.1905956,5.9049993,0.0074818805,4.592528,0,1,0,0,0,0,0,0,0,0,0,0,0,0,0,0,0,0,0,0,0
591,2.1665428,-0.76213807,0.27636534,-0.6512401,0.6557453,-7.0111327,0.18285716,-2.1592708,3.2924762,0,1,0,0,0,0,0,0,0,0,0,0,0,0,0,0,0,0,0,0,0
592,2.47756,-0.60942715,0.52808625,-0.7545707,1.4994348,-8.041244,-3.9890394,-4.0878,3.6252704,0,1,0,0,0,0,0,0,0,0,0,0,0,0,0,0,0,0,0,0,0
593,2.7243915,-0.39053118,0.6811117,-1.327683,0.73990124,-8.711295,-8.723573,-4.063858,5.3478985,0,1,0,0,0,0,0,0,0,0,0,0,0,0,0,0,0,0,0,0,0
594,2.9213796,-0.23738772,0.8362396,0.754909,2.4890654,-7.472392,-18.208202,5.8301806,8.547749,0,1,0,0,0,0,0,0,0,0,0,0,0,0,0,0,0,0,0,0,0
595,2.9072063,-0.23691414,0.8457073,1.9650347,1.2895665,-4.328787,-17.693449,3.974674,4.728997,0,1,0,0,0,0,0,0,0,0,0,0,0,0,0,0,0,0,0,0,0
596,3.023009,-0.16581772,0.901502,-0.4328755,-1.3416367,-2.7436736,-13.292907,0.99868137,4.3866262,0,1,0,0,0,0,0,0,0,0,0,0,0,0,0,0,0,0,0,0,0
597,3.051441,-0.08605673,0.8685549,0.062472433,-0.5181872,-2.1034496,-12.865542,0.33189622,5.820753,0,1,0,0,0,0,0,0,0,0,0,0,0,0,0,0,0,0,0,0,0
598,3.0837097,-0.04846249,0.8749673,0.6462373,-0.048405614,-1.359895,-13.763368,1.9012954,3.7964556,0,1,0,0,0,0,0,0,0,0,0,0,0,0,0,0,0,0,0,0,0
599,3.0927956,-0.036447957,0.87995917,0.12106197,-0.21245633,-0.43631074,-13.067852,2.194585,4.490774,0,1,0,0,0,0,0,0,0,0,0,0,0,0,0,0,0,0,0,0,0
600,3.0750368,-0.03706797,0.86626,-0.21343106,-0.8303097,0.24758902,-10.686818,0.7544728,4.725406,0,1,0,0,0,0,0,0,0,0,0,0,0,0,0,0,0,0,0,0,0
601,3.0463705,-0.03621254,0.8416123,-0.394526,-0.742958,0.39353025,-8.481759,-0.35164836,4.100519,0,1,0,0,0,0,0,0,0,0,0,0,0,0,0,0,0,0,0,0,0
602,3.0312073,-0.039492115,0.85042393,-0.10583935,0.28821793,0.2720901,-8.223185,-0.21398178,4.9935565,0,1,0,0,0,0,0,0,0,0,0,0,0,0,0,0,0,0,0,0,0
603,3.021959,-0.038172293,0.85894066,-0.15164572,0.1966052,0.09419095,-8.24593,0.20739773,5.7201967,0,1,0,0,0,0,0,0,0,0,0,0,0,0,0,0,0,0,0,0,0
604,3.0141985,-0.039544094,0.8619292,-0.1697552,0.0059228702,0.105908856,-8.506898,1.07769,5.3622637,0,1,0,0,0,0,0,0,0,0,0,0,0,0,0,0,0,0,0,0,0
605,2.997413,-0.040957455,0.86533314,-0.19638683,-0.011121361,0.28700382,-8.581119,1.2165537,5.0857334,0,1,0,0,0,0,0,0,0,0,0,0,0,0,0,0,0,0,0,0,0
606,2.9767778,-0.045336053,0.86765504,-0.19851735,0.057055563,0.45744613,-9.188048,0.9735423,5.632808,0,1,0,0,0,0,0,0,0,0,0,0,0,0,0,0,0,0,0,0,0
607,2.9477332,-0.05902931,0.8740982,0.044362936,0.07729559,0.92296666,-11.825261,2.6063879,6.4767647,0,1,0,0,0,0,0,0,0,0,0,0,0,0,0,0,0,0,0,0,0
608,2.9040694,-0.09909875,0.87303823,0.039036617,-0.48729455,1.8646604,-12.469302,2.5932198,5.150377,0,1,0,0,0,0,0,0,0,0,0,0,0,0,0,0,0,0,0,0,0
609,2.828007,-0.16208531,0.85611296,0.014535533,-0.20713001,2.8979669,-14.779706,4.198532,5.1336174,0,1,0,0,0,0,0,0,0,0,0,0,0,0,0,0,0,0,0,0,0
610,2.7397623,-0.27555668,0.862657,0.64304155,0.7441511,4.6695013,-14.009971,3.1989527,6.5318313,0,1,0,0,0,0,0,0,0,0,0,0,0,0,0,0,0,0,0,0,0
611,2.6203427,-0.42931676,0.8517838,0.63345414,0.49168345,5.747549,-15.0143385,3.7196915,4.4776063,0,1,0,0,0,0,0,0,0,0,0,0,0,0,0,0,0,0,0,0,0
612,2.4212844,-0.5686555,0.75498545,-0.6427457,-0.30088314,6.8043,-12.893075,1.2883798,4.2417774,0,1,0,0,0,0,0,0,0,0,0,0,0,0,0,0,0,0,0,0,0
613,2.1551862,-0.69441503,0.57067233,-0.82277536,-0.6886394,7.756646,-9.897929,0.70060325,9.258827,0,1,0,0,0,0,0,0,0,0,0,0,0,0,0,0,0,0,0,0,0
614,2.1641548,-0.6789008,0.5766286,0.8731256,-0.02711018,8.124163,-6.3676786,-0.679654,5.3886,0,1,0,0,0,0,0,0,0,0,0,0,0,0,0,0,0,0,0,0,0
615,1.8772438,-0.806551,0.34826288,0.32984075,-0.09954816,7.3667593,1.8372505,-2.6788125,5.7956142,0,1,0,0,0,0,0,0,0,0,0,0,0,0,0,0,0,0,0,0,0
616,1.6061759,-0.8332778,0.060862012,-1.179639,-2.8777578,4.0463305,6.740576,-0.8891467,3.1248822,0,1,0,0,0,0,0,0,0,0,0,0,0,0,0,0,0,0,0,0,0
617,1.5310906,-0.7736186,-0.16876699,-1.0933526,-2.3248856,2.389844,5.572205,4.8461637,2.5083752,0,1,0,0,0,0,0,0,0,0,0,0,0,0,0,0,0,0,0,0,0
618,1.4854612,-0.7524362,-0.27243075,0.89656144,1.1031353,1.9072793,7.4480624,4.222474,3.205088,0,1,0,0,0,0,0,0,0,0,0,0,0,0,0,0,0,0,0,0,0
619,1.4816587,-0.76747715,-0.26719263,0.56952524,1.4024746,0.6417451,5.582979,4.7755346,5.316774,0,1,0,0,0,0,0,0,0,0,0,0,0,0,0,0,0,0,0,0,0
620,1.4653558,-0.7617251,-0.26591912,-0.26670733,-0.093156576,-0.05387255,3.4246063,7.168539,6.365434,0,0,0,0,0,0,0,0,0,0,0,0,0,0,0,0,0,0,0,0,0
621,1.4312272,-0.75500715,-0.27425075,-0.14313665,0.11456999,0.080350764,4.286519,7.628226,5.9380693,0,0,0,0,0,0,0,0,0,0,0,0,0,0,0,0,0,0,0,0,0
622,1.414124,-0.757061,-0.2632553,-0.006782805,0.31270918,-0.21153168,3.8352118,7.1278377,6.148759,0,0,0,0,0,0,0,0,0,0,0,0,0,0,0,0,0,0,0,0,0
623,1.4029462,-0.758505,-0.26528963,0.045415152,0.18807323,-0.3340371,2.579453,7.890391,6.7509007,0,0,0,0,0,0,0,0,0,0,0,0,0,0,0,0,0,0,0,0,0
624,1.3975887,-0.76727325,-0.25344765,0.24675013,0.18487744,-0.26372963,2.5866356,7.856872,5.6902695,0,0,0,0,0,0,0,0,0,0,0,0,0,0,0,0,0,0,0,0,0
625,1.3909016,-0.7807174,-0.24297473,0.08376467,0.0634373,-0.20833589,1.8276737,8.022072,5.3383217,0,0,0,0,0,0,0,0,0,0,0,0,0,0,0,0,0,0,0,0,0
626,1.38227,-0.78550875,-0.2406072,-0.09733028,-0.18796511,-0.17637797,2.1449053,7.761104,5.507113,0,1,0,0,0,0,0,0,0,0,0,0,0,0,0,0,0,0,0,0,0
627,1.3812312,-0.7867148,-0.2410058,-0.03874074,-0.16772509,-0.23922856,1.4134768,7.7922287,5.5597854,0,1,0,0,0,0,0,0,0,0,0,0,0,0,0,0,0,0,0,0,0
628,1.3746779,-0.7949255,-0.2366202,0.19881749,0.0751584,-0.10926896,1.5451579,7.7862434,5.6723127,0,1,0,0,0,0,0,0,0,0,0,0,0,0,0,0,0,0,0,0,0
629,1.3619065,-0.8053099,-0.23549366,0.1476848,-0.036694366,-0.1923596,1.9521722,7.538443,5.17791,0,1,0,0,0,0,0,0,0,0,0,0,0,0,0,0,0,0,0,0,0
630,1.3628883,-0.8130076,-0.22678079,0.058202587,-0.02604172,-0.24349229,0.8903438,7.9957356,5.2281885,0,1,0,0,0,0,0,0,0,0,0,0,0,0,0,0,0,0,0,0,0
631,1.3495307,-0.8125413,-0.22998956,-0.11543552,-0.09421864,-0.025113076,1.7223289,7.91553,5.2018523,0,1,0,0,0,0,0,0,0,0,0,0,0,0,0,0,0,0,0,0,0
632,1.340393,-0.8069422,-0.2318496,-0.22622302,-0.10487129,-0.10500791,2.5363574,7.23438,5.748927,0,1,0,0,0,0,0,0,0,0,0,0,0,0,0,0,0,0,0,0,0
633,1.3159511,-0.8077604,-0.23758687,-0.1069134,-0.083566,-0.3723893,3.1109657,7.1122756,5.449652,0,1,0,0,0,0,0,0,0,0,0,0,0,0,0,0,0,0,0,0,0
634,1.2916074,-0.8076706,-0.23395868,-0.13887133,0.0037856835,-0.8155393,4.299687,6.5532293,4.997148,0,1,0,0,0,0,0,0,0,0,0,0,0,0,0,0,0,0,0,0,0
635,1.3924581,-0.8047011,-0.20646292,-0.21876617,-0.072913356,-1.3971736,4.6516347,5.6290674,6.455217,0,1,0,0,0,0,0,0,0,0,0,0,0,0,0,0,0,0,0,0,0
636,1.5269914,-0.800142,-0.16811952,-0.26670307,-0.50541073,-2.3633685,6.3215904,3.3725324,5.1491795,0,1,0,0,0,0,0,0,0,0,0,0,0,0,0,0,0,0,0,0,0
637,1.7267851,-0.7834533,-0.095127665,-0.73754996,-0.24229039,-4.473657,7.968801,-0.5419874,2.2174797,0,1,0,0,0,0,0,0,0,0,0,0,0,0,0,0,0,0,0,0,0
638,2.0352545,-0.72099787,0.109656274,-1.2382243,0.97424155,-6.622296,0.9142858,-0.46776715,3.18354,0,1,0,0,0,0,0,0,0,0,0,0,0,0,0,0,0,0,0,0,0
639,2.3382916,-0.59877276,0.36158162,-1.1593946,1.9127395,-7.425505,-2.0102315,-4.2733507,3.1141083,0,1,0,0,0,0,0,0,0,0,0,0,0,0,0,0,0,0,0,0,0
640,2.5947485,-0.40714163,0.53393006,-1.9689956,1.0019385,-8.222322,-7.4103537,-4.536713,6.6479497,0,1,0,0,0,0,0,0,0,0,0,0,0,0,0,0,0,0,0,0,0
641,2.7898521,-0.22452168,0.6482648,-1.2957485,1.3460189,-7.6971474,-14.096162,1.7552491,10.30629,0,1,0,0,0,0,0,0,0,0,0,0,0,0,0,0,0,0,0,0,0
642,2.780935,-0.22220112,0.65680754,1.0329195,1.5516149,-5.389785,-14.9508915,1.8510172,8.0784855,0,1,0,0,0,0,0,0,0,0,0,0,0,0,0,0,0,0,0,0,0
643,2.922096,-0.13863432,0.7367649,0.2978871,0.06876681,-3.8068018,-14.840758,3.3042977,8.248474,0,1,0,0,0,0,0,0,0,0,0,0,0,0,0,0,0,0,0,0,0
644,3.0037656,-0.06414746,0.74713355,0.33091027,-0.47025698,-2.4230232,-13.100174,0.5006874,8.147918,0,1,0,0,0,0,0,0,0,0,0,0,0,0,0,0,0,0,0,0,0
645,3.0517118,-0.028671924,0.73854446,0.594025,-0.81221116,-1.6166145,-13.16362,1.2931682,6.0015154,0,1,0,0,0,0,0,0,0,0,0,0,0,0,0,0,0,0,0,0,0
646,3.0729609,-0.015604517,0.7211123,0.36818895,-0.7536216,-0.7995566,-11.839626,0.77961195,4.9133506,0,1,0,0,0,0,0,0,0,0,0,0,0,0,0,0,0,0,0,0,0
647,3.0678139,-0.013015987,0.7085563,0.10400336,-0.59596246,-0.15400635,-11.346421,1.1531074,5.730971,0,1,0,0,0,0,0,0,0,0,0,0,0,0,0,0,0,0,0,0,0
648,3.0485651,-0.018522656,0.6912303,-0.015306252,-0.7749269,0.4137796,-9.560347,-0.1074398,5.5537996,0,1,0,0,0,0,0,0,0,0,0,0,0,0,0,0,0,0,0,0,0
649,3.029488,-0.023309836,0.68011683,-0.04939471,-0.396758,0.36158165,-7.5288663,-1.1046249,5.156362,0,1,0,0,0,0,0,0,0,0,0,0,0,0,0,0,0,0,0,0,0
650,3.0166721,-0.024477163,0.68876773,-0.052590508,0.12096051,0.15492034,-7.903559,-0.117016606,6.019472,0,1,0,0,0,0,0,0,0,0,0,0,0,0,0,0,0,0,0,0,0
651,2.9967618,-0.028566169,0.70002335,-0.06643894,0.17635426,0.23481517,-8.420707,0.68264675,5.7561097,0,1,0,0,0,0,0,0,0,0,0,0,0,0,0,0,0,0,0,0,0
652,2.9854693,-0.029011244,0.7051853,-0.33595085,-0.07717867,0.47343442,-8.727164,0.54258597,6.1343937,0,1,0,0,0,0,0,0,0,0,0,0,0,0,0,0,0,0,0,0,0
653,2.954939,-0.03180544,0.70661277,-0.24327284,0.1571795,0.76531684,-9.301773,0.54019177,6.7580833,0,1,0,0,0,0,0,0,0,0,0,0,0,0,0,0,0,0,0,0,0
654,2.9116554,-0.048245877,0.7190294,0.04754435,0.25731435,1.2915574,-11.955746,2.431611,7.7839985,0,1,0,0,0,0,0,0,0,0,0,0,0,0,0,0,0,0,0,0,0
655,2.8476467,-0.09773751,0.7296743,0.39695108,0.27861965,2.7712097,-15.10053,4.1889553,7.9468045,0,1,0,0,0,0,0,0,0,0,0,0,0,0,0,0,0,0,0,0,0
656,2.7580597,-0.19847073,0.7396367,1.0265224,0.49060726,4.613052,-14.960468,2.7213094,8.789563,0,1,0,0,0,0,0,0,0,0,0,0,0,0,0,0,0,0,0,0,0
657,2.6300545,-0.33776113,0.70961046,0.57378495,-0.6332467,5.6516848,-12.427403,1.6092029,5.1491795,0,1,0,0,0,0,0,0,0,0,0,0,0,0,0,0,0,0,0,0,0
658,2.4448535,-0.46501064,0.63260955,0.13383077,-0.26359996,6.5571594,-12.893075,3.0277674,6.616825,0,1,0,0,0,0,0,0,0,0,0,0,0,0,0,0,0,0,0,0,0
659,2.2074358,-0.62999195,0.54704165,1.0350444,1.2128565,8.2733,-10.234314,1.2141595,6.8095584,0,1,0,0,0,0,0,0,0,0,0,0,0,0,0,0,0,0,0,0,0
660,1.9174194,-0.741859,0.35483572,0.6334398,0.3755587,8.20832,-2.0545244,-6.781277,8.193407,0,1,0,0,0,0,0,0,0,0,0,0,0,0,0,0,0,0,0,0,0
661,1.9460766,-0.7249221,0.34036824,-0.7567303,-2.635944,5.126509,2.8104935,-0.822109,7.277625,0,1,0,0,0,0,0,0,0,0,0,0,0,0,0,0,0,0,0,0,0
662,1.7747958,-0.72704065,0.070172206,-0.22091107,-2.8703086,3.9472673,5.4896054,2.4998457,2.969259,0,1,0,0,0,0,0,0,0,0,0,0,0,0,0,0,0,0,0,0,0
663,1.6562878,-0.71479666,-0.14798063,0.74208796,-0.17945072,2.6380572,6.911761,2.691382,2.1265001,0,1,0,0,0,0,0,0,0,0,0,0,0,0,0,0,0,0,0,0,0
664,1.6052855,-0.7237829,-0.215981,0.5311656,0.85705155,1.1307081,6.827964,3.5652657,4.144812,0,1,0,0,0,0,0,0,0,0,0,0,0,0,0,0,0,0,0,0,0
665,1.5896055,-0.7209501,-0.21565206,-0.18362682,0.14545493,0.04839949,3.1624413,5.7834935,7.077709,0,0,0,0,0,0,0,0,0,0,0,0,0,0,0,0,0,0,0,0,0
666,1.5715168,-0.7223022,-0.22010958,0.12956092,0.054907456,0.11764168,2.057517,7.4773912,6.2732573,0,0,0,0,0,0,0,0,0,0,0,0,0,0,0,0,0,0,0,0,0
667,1.5147016,-0.7326512,-0.2273781,0.18921573,0.29565722,0.13681644,3.9237974,6.9470754,4.998345,0,0,0,0,0,0,0,0,0,0,0,0,0,0,0,0,0,0,0,0,0
668,1.4976158,-0.7258509,-0.21940732,-0.38389653,0.04851587,-0.44694847,2.7889457,6.729203,5.90455,0,0,0,0,0,0,0,0,0,0,0,0,0,0,0,0,0,0,0,0,0
669,1.5116152,-0.7272454,-0.19637571,-0.096275136,0.24345925,-0.39048946,0.4115034,8.060379,7.555352,0,0,0,0,0,0,0,0,0,0,0,0,0,0,0,0,0,0,0,0,0
670,1.4997987,-0.74194485,-0.1868107,0.36498436,0.30950564,-0.10286806,1.7738042,7.322965,6.306776,0,0,0,0,0,0,0,0,0,0,0,0,0,0,0,0,0,0,0,0,0
671,1.4838911,-0.7453431,-0.18832299,0.09547246,-0.07931586,-0.27650616,1.415871,7.591116,5.566968,0,0,0,0,0,0,0,0,0,0,0,0,0,0,0,0,0,0,0,0,0
672,1.4809196,-0.75279933,-0.18483955,-0.062186677,-0.21780023,-0.26904932,1.1070191,7.9179244,5.5023246,0,0,0,0,0,0,0,0,0,0,0,0,0,0,0,0,0,0,0,0,0
673,1.4769483,-0.75650865,-0.18422855,0.04007871,-0.044162136,-0.12417335,1.260248,7.8113823,5.8363156,0,0,0,0,0,0,0,0,0,0,0,0,0,0,0,0,0,0,0,0,0
674,1.4685904,-0.76378113,-0.18184674,0.025165008,-0.13897067,-0.13695651,0.9801263,7.8460984,5.6004868,0,0,0,0,0,0,0,0,0,0,0,0,0,0,0,0,0,0,0,0,0
675,1.4534882,-0.76631194,-0.18808046,-0.15273415,-0.22845288,-0.11884703,1.7726071,7.702446,5.17791,0,0,0,0,0,0,0,0,0,0,0,0,0,0,0,0,0,0,0,0,0
676,1.4541305,-0.7639066,-0.1814891,-0.14101624,0.05810325,-0.28289774,1.3105261,7.3397245,6.139182,0,1,0,0,0,0,0,0,0,0,0,0,0,0,0,0,0,0,0,0,0
677,1.458744,-0.76568,-0.16940106,-0.027032949,0.070886426,-0.2573314,1.0256162,7.5192895,6.5940804,0,1,0,0,0,0,0,0,0,0,0,0,0,0,0,0,0,0,0,0,0
678,1.4599464,-0.76475847,-0.16767079,-0.10691899,-0.14748612,-0.2818381,2.1389198,6.8118033,6.5282397,0,1,0,0,0,0,0,0,0,0,0,0,0,0,0,0,0,0,0,0,0
679,1.5202526,-0.76274866,-0.17518444,-0.14100745,-0.27531785,-0.66959435,4.260183,5.3417635,5.970391,0,1,0,0,0,0,0,0,0,0,0,0,0,0,0,0,0,0,0,0,0
680,1.5725913,-0.7583332,-0.18771142,-0.2592518,-0.1123324,-1.7188798,5.2908864,4.434361,5.1228433,0,1,0,0,0,0,0,0,0,0,0,0,0,0,0,0,0,0,0,0,0
681,1.7025707,-0.7503415,-0.14110398,-0.4392815,0.1305479,-2.9396727,5.270536,2.3322518,5.519084,0,1,0,0,0,0,0,0,0,0,0,0,0,0,0,0,0,0,0,0,0
682,1.8926364,-0.7336142,-0.03441244,-0.32955927,0.5673063,-4.3916283,2.896685,1.6403275,6.365434,0,1,0,0,0,0,0,0,0,0,0,0,0,0,0,0,0,0,0,0,0
683,2.1379962,-0.69625694,0.116913535,-0.163378,0.67702854,-6.1205525,3.5096004,-3.2953193,3.8072295,0,1,0,0,0,0,0,0,0,0,0,0,0,0,0,0,0,0,0,0,0
684,2.444439,-0.5816908,0.31121102,-1.6664661,0.094328895,-8.342694,-1.1351509,-6.4053874,3.444508,0,1,0,0,0,0,0,0,0,0,0,0,0,0,0,0,0,0,0,0,0
685,2.7154644,-0.39532813,0.46304718,-1.9317169,0.75798863,-8.40874,-12.919412,0.12599486,8.143129,0,1,0,0,0,0,0,0,0,0,0,0,0,0,0,0,0,0,0,0,0
686,2.9119666,-0.2683716,0.61176443,0.84436214,2.3878431,-5.982068,-16.902166,7.131429,11.047296,0,1,0,0,0,0,0,0,0,0,0,0,0,0,0,0,0,0,0,0,0
687,3.0239906,-0.21244074,0.6495541,0.3032078,-0.66733515,-3.5628526,-12.500426,2.992752E-4,8.771606,0,1,0,0,0,0,0,0,0,0,0,0,0,0,0,0,0,0,0,0,0
688,3.0831072,-0.12586196,0.6077863,-0.82064617,-1.8614966,-3.226229,-10.354025,0.9795278,6.3235354,0,1,0,0,0,0,0,0,0,0,0,0,0,0,0,0,0,0,0,0,0
689,-3.1380074,-0.09409051,0.66333437,0.6451577,1.0892859,-2.5913312,-12.542325,2.6973674,5.644779,0,1,0,0,0,0,0,0,0,0,0,0,0,0,0,0,0,0,0,0,0
690,3.1223173,-0.096560635,0.6733588,0.66433245,0.7643802,-1.4312584,-13.375507,3.2193034,5.7537155,0,1,0,0,0,0,0,0,0,0,0,0,0,0,0,0,0,0,0,0,0
691,-3.1392405,-0.077414066,0.6984436,-0.5596564,-0.7951669,-0.6887691,-10.640132,1.2105682,6.388179,0,1,0,0,0,0,0,0,0,0,0,0,0,0,0,0,0,0,0,0,0
692,3.1287584,-0.051656626,0.67522365,-0.3913446,-0.5490908,-0.25201067,-8.731953,0.6227917,5.3514895,0,1,0,0,0,0,0,0,0,0,0,0,0,0,0,0,0,0,0,0,0
693,3.112267,-0.04094942,0.67907476,-0.23368546,0.3904724,-0.06665466,-8.263886,0.3031658,5.58253,0,1,0,0,0,0,0,0,0,0,0,0,0,0,0,0,0,0,0,0,0
694,3.1024284,-0.03555285,0.7046116,-0.0738958,0.5832853,-0.046414636,-8.251915,0.026635494,7.132776,0,1,0,0,0,0,0,0,0,0,0,0,0,0,0,0,0,0,0,0,0
695,3.0883698,-0.029662358,0.71112895,-0.3136008,-4.9534795E-4,0.081430145,-8.344092,0.67426705,7.0202484,0,1,0,0,0,0,0,0,0,0,0,0,0,0,0,0,0,0,0,0,0
696,3.0691698,-0.029406559,0.70933723,-0.20174803,-0.077194385,0.29341775,-7.5863276,0.49230772,6.6000657,0,1,0,0,0,0,0,0,0,0,0,0,0,0,0,0,0,0,0,0,0
697,3.0550008,-0.0330068,0.7145655,-0.11226582,0.10390057,0.3136578,-7.0093246,-0.05117606,6.7939963,0,1,0,0,0,0,0,0,0,0,0,0,0,0,0,0,0,0,0,0,0
698,3.0535212,-0.032327406,0.7157536,-0.11972267,-0.03884487,0.21565346,-6.7351885,-0.009277532,6.890961,0,1,0,0,0,0,0,0,0,0,0,0,0,0,0,0,0,0,0,0,0
699,3.0412743,-0.034064166,0.714882,-0.096286856,-0.120870225,0.17091236,-7.0212955,0.5174468,6.731747,0,1,0,0,0,0,0,0,0,0,0,0,0,0,0,0,0,0,0,0,0
700,3.023105,-0.03707484,0.714082,-0.0025435851,-0.04630172,0.29022196,-8.3189535,1.0465654,6.4983125,0,1,0,0,0,0,0,0,0,0,0,0,0,0,0,0,0,0,0,0,0
701,3.003755,-0.050266825,0.7215618,0.14872396,0.14225009,0.76426464,-8.830115,0.9448118,6.717382,0,1,0,0,0,0,0,0,0,0,0,0,0,0,0,0,0,0,0,0,0
702,2.9747684,-0.0698294,0.7223984,-0.07072051,-0.3371189,0.9666649,-8.763078,0.38217443,6.981941,0,1,0,0,0,0,0,0,0,0,0,0,0,0,0,0,0,0,0,0,0
703,2.929757,-0.09521245,0.71147615,0.09226495,-0.31794414,1.2542863,-10.132561,2.0449476,6.518663,0,1,0,0,0,0,0,0,0,0,0,0,0,0,0,0,0,0,0,0,0
704,2.8714354,-0.1473715,0.71576244,0.40651795,0.3148229,2.2780054,-11.287764,2.4052749,7.3446627,0,1,0,0,0,0,0,0,0,0,0,0,0,0,0,0,0,0,0,0,0
705,2.7984967,-0.23225668,0.7307412,0.9178449,0.48846102,3.335813,-13.44015,3.6023757,7.624784,0,1,0,0,0,0,0,0,0,0,0,0,0,0,0,0,0,0,0,0,0
706,2.682202,-0.3305298,0.6915047,0.33834103,-0.58958656,4.247679,-12.578238,2.560898,5.1515737,0,0,0,0,0,0,0,0,0,0,0,0,0,0,0,0,0,0,0,0,0
707,2.5133386,-0.40380785,0.59884614,-0.88138676,-1.2351369,5.0679326,-11.096227,2.1670518,6.7365355,0,0,0,0,0,0,0,0,0,0,0,0,0,0,0,0,0,0,0,0,0
708,2.5117671,-0.3996535,0.60360944,1.4185191,1.3001925,6.157698,-10.77301,2.7129297,9.570073,0,0,0,0,0,0,0,0,0,0,0,0,0,0,0,0,0,0,0,0,0
709,2.3506808,-0.5446265,0.57818145,1.9000187,1.4077842,6.7563767,-8.43148,0.82270753,6.8837786,0,0,0,0,0,0,0,0,0,0,0,0,0,0,0,0,0,0,0,0,0
710,2.151595,-0.6834963,0.47741014,-0.3253187,-1.6111752,6.2833996,-3.7436337,-0.3540426,7.096863,0,0,0,0,0,0,0,0,0,0,0,0,0,0,0,0,0,0,0,0,0
711,1.916695,-0.7204869,0.22432609,-0.63531065,-3.1675265,5.3779244,0.26785132,0.9507974,6.11524,0,0,0,0,0,0,0,0,0,0,0,0,0,0,0,0,0,0,0,0,0
712,1.763191,-0.7249266,-0.03392263,0.00810027,-2.4815028,4.2508807,3.409044,2.6147676,2.399439,0,0,0,0,0,0,0,0,0,0,0,0,0,0,0,0,0,0,0,0,0
713,1.6556169,-0.7212696,-0.19480148,0.3905302,-0.07400525,2.842601,5.87986,2.716521,1.913416,0,0,0,0,0,0,0,0,0,0,0,0,0,0,0,0,0,0,0,0,0
714,1.6175482,-0.7060527,-0.243126,0.09332143,0.7899242,1.8210125,5.804443,3.7448308,4.752939,0,0,0,0,0,0,0,0,0,0,0,0,0,0,0,0,0,0,0,0,0
715,1.6175973,-0.69419515,-0.25559503,0.038992938,0.591785,0.88571036,5.4189763,3.9483378,7.4464164,0,0,0,0,0,0,0,0,0,0,0,0,0,0,0,0,0,0,0,0,0
716,1.6048132,-0.69261307,-0.26432952,0.09864774,0.10069811,0.20607167,3.564667,6.01214,6.661118,0,0,0,0,0,0,0,0,0,0,0,0,0,0,0,0,0,0,0,0,0
717,1.5641458,-0.69315624,-0.27070433,0.19665207,0.40536374,0.1634611,4.057873,6.4610524,6.15235,0,0,0,0,0,0,0,0,0,0,0,0,0,0,0,0,0,0,0,0,0
718,1.539192,-0.6970898,-0.26494592,-0.03344504,0.29138044,-0.19979407,3.7478235,6.228815,6.9783497,0,0,0,0,0,0,0,0,0,0,0,0,0,0,0,0,0,0,0,0,0
719,1.5437497,-0.6973566,-0.2516163,-0.055815596,0.0026937874,-0.3574532,2.080262,7.071574,7.193828,0,0,0,0,0,0,0,0,0,0,0,0,0,0,0,0,0,0,0,0,0
720,1.54382,-0.702529,-0.24367458,0.1625636,0.037847515,-0.18168458,2.0503345,7.287052,7.037008,0,0,0,0,0,0,0,0,0,0,0,0,0,0,0,0,0,0,0,0,0
721,1.5310365,-0.71112657,-0.24430849,0.105039336,-0.05483049,-0.22855622,2.4489691,7.057209,6.4300776,0,0,0,0,0,0,0,0,0,0,0,0,0,0,0,0,0,0,0,0,0
722,1.5285922,-0.71768427,-0.24037853,0.052841377,-0.11235477,-0.28181943,1.5367782,7.416339,6.1236196,0,0,0,0,0,0,0,0,0,0,0,0,0,0,0,0,0,0,0,0,0
723,1.526034,-0.7249421,-0.23426493,0.14551938,0.013346432,-0.15824875,1.2135609,7.3816233,6.707805,0,0,0,0,0,0,0,0,0,0,0,0,0,0,0,0,0,0,0,0,0
724,1.5160531,-0.7363091,-0.2329037,0.172151,-0.08785369,-0.14120452,1.1285669,7.496545,5.8111763,0,0,0,0,0,0,0,0,0,0,0,0,0,0,0,0,0,0,0,0,0
725,1.506959,-0.73729837,-0.2371906,-0.08031668,-0.2401865,-0.09326763,1.2925696,7.3026147,5.9165215,0,0,0,0,0,0,0,0,0,0,0,0,0,0,0,0,0,0,0,0,0
726,1.4945003,-0.7399151,-0.23644492,-0.17619048,-0.27853602,-0.15824875,1.2135609,7.216423,5.9895444,0,0,0,0,0,0,0,0,0,0,0,0,0,0,0,0,0,0,0,0,0
727,1.4951823,-0.73795116,-0.23563017,0.042188734,0.026129605,0.0100630205,0.5324106,7.698855,6.6204166,0,0,0,0,0,0,0,0,0,0,0,0,0,0,0,0,0,0,0,0,0
728,1.4762259,-0.7430465,-0.23720135,0.070947945,-0.0015694008,0.13044003,1.6924013,7.10629,5.9093385,0,0,0,0,0,0,0,0,0,0,0,0,0,0,0,0,0,0,0,0,0
729,1.46078,-0.7428973,-0.24227872,-0.15914917,-0.118748486,-0.07409074,1.8097172,6.9099655,6.252907,0,0,0,0,0,0,0,0,0,0,0,0,0,0,0,0,0,0,0,0,0
730,1.4592022,-0.74031186,-0.23908553,0.021945778,0.09536966,-0.053850714,1.273416,7.486968,6.965182,0,0,0,0,0,0,0,0,0,0,0,0,0,0,0,0,0,0,0,0,0
731,1.4440094,-0.74974245,-0.23420049,0.16256069,0.17952555,-0.04000228,1.68881,7.3540897,6.1762924,0,0,0,0,0,0,0,0,0,0,0,0,0,0,0,0,0,0,0,0,0
732,1.4372534,-0.751627,-0.23220143,-0.092037514,-0.1304664,-0.036806483,1.2590508,7.4199305,6.402544,0,0,0,0,0,0,0,0,0,0,0,0,0,0,0,0,0,0,0,0,0
733,1.4258131,-0.7513917,-0.23728915,-0.01640374,-0.09424741,0.022848325,1.6828245,7.168539,6.3498716,0,0,0,0,0,0,0,0,0,0,0,0,0,0,0,0,0,0,0,0,0
734,1.4166942,-0.7587187,-0.23138863,0.16469121,0.16887291,-0.04106754,1.4481927,7.3014174,6.40015,0,0,0,0,0,0,0,0,0,0,0,0,0,0,0,0,0,0,0,0,0
735,1.405391,-0.76252115,-0.23214875,0.002771019,-0.07826844,0.05587152,1.096245,7.525275,6.090101,0,0,0,0,0,0,0,0,0,0,0,0,0,0,0,0,0,0,0,0,0
736,1.3957369,-0.76384634,-0.23263286,-0.11973439,-0.17733803,0.09635157,1.6349405,7.0332665,6.2373443,0,0,0,0,0,0,0,0,0,0,0,0,0,0,0,0,0,0,0,0,0
737,1.3809,-0.7617381,-0.2406454,0.09118797,0.09536966,-0.024023311,1.8635868,7.0524206,6.042217,0,0,0,0,0,0,0,0,0,0,0,0,0,0,0,0,0,0,0,0,0
738,1.3741663,-0.7677906,-0.23390134,0.08053532,0.13265392,-0.107113935,1.4386159,7.3097973,6.396559,0,0,0,0,0,0,0,0,0,0,0,0,0,0,0,0,0,0,0,0,0
739,1.3688587,-0.7709311,-0.23199594,-0.05475326,-0.17733803,-0.04319807,1.1872247,7.4558434,6.1583357,0,0,0,0,0,0,0,0,0,0,0,0,0,0,0,0,0,0,0,0,0
740,1.358612,-0.7701956,-0.23771003,0.0017057547,-0.074007384,0.05800205,1.4769232,7.3421187,6.080524,0,0,0,0,0,0,0,0,0,0,0,0,0,0,0,0,0,0,0,0,0
741,1.3444524,-0.7737862,-0.23863529,0.03899001,0.0612812,0.0026083,1.7809868,7.2331824,5.99553,0,0,0,0,0,0,0,0,0,0,0,0,0,0,0,0,0,0,0,0,0
742,1.3426856,-0.7745626,-0.234044,-0.012142682,0.017605359,-0.075156,1.2279263,7.3026147,6.679075,0,0,0,0,0,0,0,0,0,0,0,0,0,0,0,0,0,0,0,0,0
743,1.3347129,-0.77851903,-0.23511873,0.08905744,-0.054832622,0.012195679,1.2961609,7.474997,6.352266,0,0,0,0,0,0,0,0,0,0,0,0,0,0,0,0,0,0,0,0,0
744,1.3224151,-0.78366953,-0.23697267,0.1082322,0.0016263925,0.01965253,1.5738883,7.3133883,5.95842,0,0,0,0,0,0,0,0,0,0,0,0,0,0,0,0,0,0,0,0,0
745,1.3154544,-0.78462946,-0.23695959,0.056038503,-0.03885046,0.0026053705,1.5571289,7.296629,6.4659905,0,0,0,0,0,0,0,0,0,0,0,0,0,0,0,0,0,0,0,0,0
746,1.30587,-0.7878974,-0.23897754,0.02195004,-0.12407161,-0.082615785,1.5451579,7.3014174,6.0996776,0,0,0,0,0,0,0,0,0,0,0,0,0,0,0,0,0,0,0,0,0
747,1.3017648,-0.7910511,-0.23932345,0.037929006,-0.013284114,-0.034678884,1.1572973,7.5743566,6.0003185,0,0,0,0,0,0,0,0,0,0,0,0,0,0,0,0,0,0,0,0,0
748,1.2913094,-0.79429954,-0.23973998,0.0059710736,-0.05056837,0.066521235,1.5272014,7.3241625,5.90455,0,0,0,0,0,0,0,0,0,0,0,0,0,0,0,0,0,0,0,0,0
749,1.2826593,-0.7930338,-0.24402711,-0.099490106,-0.08998315,-0.020830447,1.6349405,7.2056494,6.116437,0,0,0,0,0,0,0,0,0,0,0,0,0,0,0,0,0,0,0,0,0
750,1.2809882,-0.7940809,-0.24075848,0.042190064,0.07939389,-0.06024523,1.1489176,7.452252,6.376208,0,0,0,0,0,0,0,0,0,0,0,0,0,0,0,0,0,0,0,0,0
751,1.2726896,-0.79915047,-0.23736648,0.11782384,0.07939389,0.056933858,1.3236942,7.4055653,6.267272,0,0,0,0,0,0,0,0,0,0,0,0,0,0,0,0,0,0,0,0,0
752,1.2622836,-0.799733,-0.24189144,-0.03877003,-0.099570535,0.027106453,1.6660651,7.3241625,5.960814,0,0,0,0,0,0,0,0,0,0,0,0,0,0,0,0,0,0,0,0,0
753,1.2573129,-0.7999533,-0.24113047,-0.040900562,-0.016479908,-0.030417826,1.5056536,7.322965,6.068553,0,0,0,0,0,0,0,0,0,0,0,0,0,0,0,0,0,0,0,0,0
754,1.2507633,-0.8033623,-0.23786353,0.06349535,0.09856865,4.7484162E-4,1.3488334,7.5336547,6.221782,0,0,0,0,0,0,0,0,0,0,0,0,0,0,0,0,0,0,0,0,0
755,1.244978,-0.8045423,-0.23761177,0.1252807,0.07513283,0.032432776,1.439813,7.522881,6.282834,0,0,0,0,0,0,0,0,0,0,0,0,0,0,0,0,0,0,0,0,0
756,1.2342381,-0.8092183,-0.23928784,-0.020660536,-0.12620214,0.0526728,1.7199347,7.358878,6.056582,0,0,0,0,0,0,0,0,0,0,0,0,0,0,0,0,0,0,0,0,0
757,1.2259475,-0.8081555,-0.24530226,-0.007877364,-0.047372576,-0.041070472,1.8396448,7.1098814,6.03264,0,0,0,0,0,0,0,0,0,0,0,0,0,0,0,0,0,0,0,0,0
758,1.2245411,-0.81193364,-0.23964712,0.10077961,0.11454762,-0.05278838,1.2063783,7.644985,6.175095,0,0,0,0,0,0,0,0,0,0,0,0,0,0,0,0,0,0,0,0,0
759,1.2164154,-0.8143823,-0.24044423,-0.007877364,-0.09104842,0.04095489,1.7654245,7.340922,6.173898,0,0,0,0,0,0,0,0,0,0,0,0,0,0,0,0,0,0,0,0,0
760,1.2113854,-0.8149562,-0.24371992,0.017688982,-0.04843784,-0.066636816,1.7091607,7.290643,5.9799676,0,0,0,0,0,0,0,0,0,0,0,0,0,0,0,0,0,0,0,0,0
761,1.2082043,-0.82095504,-0.2365263,0.11782384,0.14544028,-0.0762242,1.2315176,7.6234374,5.8698344,0,0,0,0,0,0,0,0,0,0,0,0,0,0,0,0,0,0,0,0,0
762,1.2039152,-0.8221698,-0.2359637,-0.030260967,-0.068687715,0.010070744,1.2782044,7.451055,6.118831,0,0,0,0,0,0,0,0,0,0,0,0,0,0,0,0,0,0,0,0,0
763,1.1986591,-0.81959265,-0.24074006,-0.11441686,-0.15816993,-0.005908223,1.6277579,7.227197,5.826739,0,0,0,0,0,0,0,0,0,0,0,0,0,0,0,0,0,0,0,0,0
764,1.1939698,-0.82087255,-0.24013531,0.072004415,0.14436516,-0.081542,1.2889783,7.5168953,6.03264,0,0,0,0,0,0,0,0,0,0,0,0,0,0,0,0,0,0,0,0,0
765,1.1937019,-0.82531834,-0.23190154,-4.335626E-4,0.03890399,-5.819007E-4,1.1979986,7.6461825,6.3235354,0,0,0,0,0,0,0,0,0,0,0,0,0,0,0,0,0,0,0,0,0
766,1.1882044,-0.8243945,-0.23458911,0.0070232884,-0.11875515,0.043093942,1.7857752,7.191284,6.3115644,0,0,0,0,0,0,0,0,0,0,0,0,0,0,0,0,0,0,0,0,0
767,1.1798707,-0.82680583,-0.24016145,0.0634823,-0.030338198,-0.09325991,1.8683752,7.3493013,5.826739,0,0,0,0,0,0,0,0,0,0,0,0,0,0,0,0,0,0,0,0,0
768,1.1800139,-0.82951516,-0.23702776,0.008088552,0.02185976,-0.1625021,1.9006969,7.179313,6.090101,0,0,0,0,0,0,0,0,0,0,0,0,0,0,0,0,0,0,0,0,0
769,1.1843523,-0.8315332,-0.23214099,0.016610669,-0.08892774,-0.26796326,2.1305401,7.132626,6.139182,0,1,0,0,0,0,0,0,0,0,0,0,0,0,0,0,0,0,0,0,0
770,1.1866262,-0.83102536,-0.23049091,-0.11761265,-0.3051764,-0.54173625,3.3467946,6.394015,6.005107,0,1,0,0,0,0,0,0,0,0,0,0,0,0,0,0,0,0,0,0,0
771,1.3003167,-0.83100855,-0.20655185,-0.1101558,-0.22528158,-1.2575939,4.3128552,5.6135054,6.047005,0,1,0,0,0,0,0,0,0,0,0,0,0,0,0,0,0,0,0,0,0
772,1.476974,-0.8285075,-0.13631275,-0.14104846,-0.22208579,-2.5891745,7.1847,2.1119852,4.393809,0,1,0,0,0,0,0,0,0,0,0,0,0,0,0,0,0,0,0,0,0
773,1.7522389,-0.7990207,0.027205637,-0.80896926,0.28924114,-4.7292905,4.5151653,2.1119852,4.1256585,0,1,0,0,0,0,0,0,0,0,0,0,0,0,0,0,0,0,0,0,0
774,1.7866496,-0.7778497,0.0140927555,-0.28272864,1.7007165,-5.800946,2.281375,-1.0304046,3.1392474,0,1,0,0,0,0,0,0,0,0,0,0,0,0,0,0,0,0,0,0,0
775,2.0780876,-0.7056787,0.267796,-1.0433275,1.7582408,-7.3242745,-1.3015479,-4.4110174,2.7023056,0,1,0,0,0,0,0,0,0,0,0,0,0,0,0,0,0,0,0,0,0
776,2.3620794,-0.5505055,0.49917713,-1.9541285,1.0295999,-8.050785,-8.442254,-1.6002246,5.7752633,0,1,0,0,0,0,0,0,0,0,0,0,0,0,0,0,0,0,0,0,0
777,2.5591197,-0.35608354,0.62827826,-1.3852773,1.5792763,-6.693638,-12.672809,3.5389295,7.743297,0,1,0,0,0,0,0,0,0,0,0,0,0,0,0,0,0,0,0,0,0
778,2.7038417,-0.22453265,0.7479109,0.45975775,1.8061756,-4.8326197,-12.63929,1.0154408,8.526201,0,1,0,0,0,0,0,0,0,0,0,0,0,0,0,0,0,0,0,0,0
779,2.8051221,-0.12839758,0.79275125,-0.18472724,0.10707878,-4.016627,-12.1005945,0.935235,7.157915,0,1,0,0,0,0,0,0,0,0,0,0,0,0,0,0,0,0,0,0,0
780,2.8696024,-0.041942522,0.8061485,-0.13146402,0.17419045,-3.2240703,-11.700763,-0.17208324,6.2960024,0,1,0,0,0,0,0,0,0,0,0,0,0,0,0,0,0,0,0,0,0
781,2.9267688,0.019161055,0.8251268,0.24457432,0.30947903,-2.6275222,-12.861951,0.57371056,7.4619784,0,1,0,0,0,0,0,0,0,0,0,0,0,0,0,0,0,0,0,0,0
782,2.955124,0.052274596,0.8127667,0.25416172,-0.52249247,-1.7103294,-13.133693,1.2464813,5.8877907,0,1,0,0,0,0,0,0,0,0,0,0,0,0,0,0,0,0,0,0,0
783,2.9384816,0.05054432,0.820125,0.19557217,-0.48840404,-0.7558525,-11.547534,0.42766428,4.748151,0,1,0,0,0,0,0,0,0,0,0,0,0,0,0,0,0,0,0,0,0
784,2.9483898,0.06301066,0.8067877,-0.14318192,-0.2977217,-0.18060972,-9.5531645,-0.86281043,5.9644055,0,1,0,0,0,0,0,0,0,0,0,0,0,0,0,0,0,0,0,0,0
785,2.9455562,0.07116436,0.80124223,-0.09737556,-0.21143529,-0.18380553,-8.3907795,-2.3077111,5.7800517,0,1,0,0,0,0,0,0,0,0,0,0,0,0,0,0,0,0,0,0,0
786,2.94366,0.07988008,0.8002925,0.019803531,0.11133984,-0.26476562,-9.044396,-1.0758944,6.124817,0,1,0,0,0,0,0,0,0,0,0,0,0,0,0,0,0,0,0,0,0
787,2.9415956,0.08183805,0.8088369,-0.022807045,0.09962193,-0.052777994,-9.045593,-0.6880337,5.758504,0,1,0,0,0,0,0,0,0,0,0,0,0,0,0,0,0,0,0,0,0
788,2.9327505,0.08385347,0.8124554,-0.18366197,0.035706066,0.11020746,-8.079533,-1.0220249,5.8949733,0,1,0,0,0,0,0,0,0,0,0,0,0,0,0,0,0,0,0,0,0
789,2.9260364,0.08530289,0.81611323,-0.13146402,0.07618611,0.14003487,-7.579145,-1.2805986,6.4408517,0,1,0,0,0,0,0,0,0,0,0,0,0,0,0,0,0,0,0,0,0
790,2.9205923,0.08434846,0.8196723,-0.035590217,0.04635871,0.09209797,-7.5097127,-1.1489176,5.794417,0,1,0,0,0,0,0,0,0,0,0,0,0,0,0,0,0,0,0,0,0
791,2.911765,0.08234946,0.82541937,-0.08139659,0.10175246,0.14003487,-7.938275,-0.61860186,6.064962,0,1,0,0,0,0,0,0,0,0,0,0,0,0,0,0,0,0,0,0,0
792,2.9016886,0.07835237,0.8262352,-0.09737556,-0.03992771,0.2561487,-7.8939824,-0.84126264,6.2720604,0,1,0,0,0,0,0,0,0,0,0,0,0,0,0,0,0,0,0,0,0
793,2.8964615,0.07778461,0.8285496,-0.04091654,-0.010100305,0.33178246,-8.455422,-0.5228338,6.1499557,0,1,0,0,0,0,0,0,0,0,0,0,0,0,0,0,0,0,0,0,0
794,2.8759453,0.06665466,0.83204764,0.16254896,0.052750297,0.68971133,-10.486903,1.0214263,7.4488106,0,1,0,0,0,0,0,0,0,0,0,0,0,0,0,0,0,0,0,0,0
795,2.8526726,0.036522664,0.83583605,0.22433297,-0.37229154,1.377873,-10.374375,0.07092822,6.7700543,0,1,0,0,0,0,0,0,0,0,0,0,0,0,0,0,0,0,0,0,0
796,2.8032525,-0.009332333,0.82323706,0.37346998,-0.32435465,1.9573768,-12.459725,1.9826983,7.001095,0,1,0,0,0,0,0,0,0,0,0,0,0,0,0,0,0,0,0,0,0
797,2.7478633,-0.09044032,0.82556266,0.93806016,0.12838274,3.307067,-13.368324,2.739266,6.9903207,0,1,0,0,0,0,0,0,0,0,0,0,0,0,0,0,0,0,0,0,0
798,2.6740081,-0.21396545,0.82491887,1.0871972,0.18590702,4.48951,-12.278963,1.0740987,8.077289,0,1,0,0,0,0,0,0,0,0,0,0,0,0,0,0,0,0,0,0,0
799,2.5880513,-0.3384121,0.7890462,0.7857273,-0.6130413,4.431986,-11.523592,0.9567829,7.4164886,0,1,0,0,0,0,0,0,0,0,0,0,0,0,0,0,0,0,0,0,0
800,2.480566,-0.46117103,0.725113,0.8187505,-0.6812182,4.979532,-10.327688,3.0792427,8.284387,0,1,0,0,0,0,0,0,0,0,0,0,0,0,0,0,0,0,0,0,0
801,2.3434772,-0.611263,0.6437137,1.4195597,-0.4873401,5.75824,-8.016087,1.7193362,5.0761566,0,1,0,0,0,0,0,0,0,0,0,0,0,0,0,0,0,0,0,0,0
802,2.3490326,-0.60204476,0.6473924,1.408907,0.18590702,5.7891326,-5.296273,1.089661,4.866664,0,1,0,0,0,0,0,0,0,0,0,0,0,0,0,0,0,0,0,0,0
803,2.1976883,-0.7346315,0.5426688,1.2160941,0.03250894,5.1148205,-1.089661,-0.29658175,5.435287,0,1,0,0,0,0,0,0,0,0,0,0,0,0,0,0,0,0,0,0,0
804,2.0439346,-0.8278839,0.39831403,0.40542793,-1.3427474,3.6522124,0.022445641,2.3657706,4.047847,0,1,0,0,0,0,0,0,0,0,0,0,0,0,0,0,0,0,0,0,0
805,1.8341334,-0.87659967,0.21148008,0.37240472,-1.2415473,3.0343592,1.1572973,4.572027,2.019958,0,1,0,0,0,0,0,0,0,0,0,0,0,0,0,0,0,0,0,0,0
806,1.7469071,-0.9029851,0.0597829,0.30635834,-0.14112917,2.417571,2.9613283,4.4511204,2.3826797,0,1,0,0,0,0,0,0,0,0,0,0,0,0,0,0,0,0,0,0,0
807,1.6982888,-0.9047494,-0.0184218,0.08478333,0.48950738,1.4449846,3.3994672,5.3226094,4.3985972,0,1,0,0,0,0,0,0,0,0,0,0,0,0,0,0,0,0,0,0,0
808,1.5844858,-0.9080744,-0.042266935,0.15722132,0.85382783,0.73551846,2.9002762,6.7495537,5.035455,0,1,0,0,0,0,0,0,0,0,0,0,0,0,0,0,0,0,0,0,0
809,1.5498071,-0.91151255,-0.03961706,0.13591602,0.88258994,0.5192698,1.474529,8.12622,6.082918,0,1,0,0,0,0,0,0,0,0,0,0,0,0,0,0,0,0,0,0,0
810,1.5270418,-0.9038654,-0.05802249,-0.17940225,0.16353646,0.48837712,1.4733319,7.9119387,6.626402,0,0,0,0,0,0,0,0,0,0,0,0,0,0,0,0,0,0,0,0,0
811,1.5165544,-0.88050497,-0.10160383,-0.6683586,-0.9209027,0.26893267,1.8384476,7.75871,6.340295,0,0,0,0,0,0,0,0,0,0,0,0,0,0,0,0,0,0,0,0,0
812,1.4994794,-0.88259614,-0.105895154,-0.022808377,-0.17628288,0.14536199,1.6900071,8.193257,5.165939,0,0,0,0,0,0,0,0,0,0,0,0,0,0,0,0,0,0,0,0,0
813,1.4793633,-0.8865307,-0.11501308,0.15935184,0.30734715,0.045227133,1.3811551,8.127417,5.2904377,0,0,0,0,0,0,0,0,0,0,0,0,0,0,0,0,0,0,0,0,0
814,1.4726398,-0.890094,-0.11101775,-0.039852608,-0.14539021,-0.09432251,1.2099696,7.3876085,5.435287,0,0,0,0,0,0,0,0,0,0,0,0,0,0,0,0,0,0,0,0,0
815,1.4730197,-0.88949686,-0.112566926,0.022997994,-0.044190098,-0.21789318,0.76225394,7.9658084,5.0677767,0,0,0,0,0,0,0,0,0,0,0,0,0,0,0,0,0,0,0,0,0
816,1.4776987,-0.89822614,-0.09543287,0.21368033,0.33078298,-0.16143416,0.28939912,8.353669,5.3215623,0,0,0,0,0,0,0,0,0,0,0,0,0,0,0,0,0,0,0,0,0
817,1.4799005,-0.9021547,-0.08612308,-0.041983135,-0.04738589,-0.15184678,0.44143093,7.9191213,5.4520464,0,0,0,0,0,0,0,0,0,0,0,0,0,0,0,0,0,0,0,0,0
818,1.4851495,-0.90009844,-0.08441309,-0.116551645,-0.20717555,-0.15717311,-0.12360066,8.346486,5.248539,0,0,0,0,0,0,0,0,0,0,0,0,0,0,0,0,0,0,0,0,0
819,1.4799031,-0.9028878,-0.08056761,0.016606407,0.0964248,-0.0037750308,0.22834699,8.256703,5.2281885,0,0,0,0,0,0,0,0,0,0,0,0,0,0,0,0,0,0,0,0,0
820,1.4793786,-0.90175754,-0.07512742,-0.0760716,0.0665974,-0.05384246,0.23672669,8.122628,5.6316113,0,0,0,0,0,0,0,0,0,0,0,0,0,0,0,0,0,0,0,0,0
821,1.4783262,-0.90244824,-0.07399922,-0.08459371,-0.16776077,-0.047450874,0.109834,7.972991,5.86744,0,0,0,0,0,0,0,0,0,0,0,0,0,0,0,0,0,0,0,0,0
822,1.4738201,-0.90205413,-0.07870884,-0.0025683525,-0.12408493,-0.06129931,0.50727147,7.9095445,5.0558057,0,0,0,0,0,0,0,0,0,0,0,0,0,0,0,0,0,0,0,0,0
823,1.4740809,-0.9037747,-0.07632995,-0.0025683525,0.0815111,-0.069821425,0.08948329,8.218396,5.483171,0,0,0,0,0,0,0,0,0,0,0,0,0,0,0,0,0,0,0,0,0
824,1.4742157,-0.90597504,-0.06847684,-0.013220997,0.026117355,0.0036818201,-0.09726445,8.335712,5.7836432,0,0,0,0,0,0,0,0,0,0,0,0,0,0,0,0,0,0,0,0,0
825,1.4713767,-0.9027391,-0.07463424,-0.1389222,-0.31476727,0.08251139,0.3600281,7.8700404,6.0984807,0,0,0,0,0,0,0,0,0,0,0,0,0,0,0,0,0,0,0,0,0
826,1.4671206,-0.90177613,-0.085499726,0.003823234,-0.25724298,-0.02508032,0.43544543,8.15495,5.606472,0,0,0,0,0,0,0,0,0,0,0,0,0,0,0,0,0,0,0,0,0
827,1.4634886,-0.907622,-0.08600335,0.121002324,0.0069425944,-0.0346677,0.2486977,8.384793,5.4532433,0,0,0,0,0,0,0,0,0,0,0,0,0,0,0,0,0,0,0,0,0
828,1.4538887,-0.91323334,-0.09076561,0.083719395,-0.13154045,0.032443162,0.4127005,8.098686,5.0629883,0,0,0,0,0,0,0,0,0,0,0,0,0,0,0,0,0,0,0,0,0
829,1.4476689,-0.9156629,-0.09331836,0.04110882,-0.044188768,0.018594723,0.5312135,7.9083476,5.390994,0,0,0,0,0,0,0,0,0,0,0,0,0,0,0,0,0,0,0,0,0
830,1.4400511,-0.9175585,-0.09388064,0.10608995,0.052750297,-0.04425588,0.60543376,7.9658084,4.961235,0,0,0,0,0,0,0,0,0,0,0,0,0,0,0,0,0,0,0,0,0
831,1.4369978,-0.92161345,-0.09073042,0.008085623,-0.058037203,-0.06982222,0.59944826,7.7862434,5.176713,0,0,0,0,0,0,0,0,0,0,0,0,0,0,0,0,0,0,0,0,0
832,1.4383781,-0.9231028,-0.08831147,-0.04837339,-0.061233,-0.08473593,0.09187749,8.140585,5.340716,0,0,0,0,0,0,0,0,0,0,0,0,0,0,0,0,0,0,0,0,0
833,1.436742,-0.9240126,-0.08706804,0.044304613,-0.005839247,0.03457369,0.27263972,8.089109,5.3239565,0,0,0,0,0,0,0,0,0,0,0,0,0,0,0,0,0,0,0,0,0
834,1.4286357,-0.92593443,-0.090983704,-0.0121544,-0.044188768,0.029247368,0.49051207,7.9083476,5.2856493,0,0,0,0,0,0,0,0,0,0,0,0,0,0,0,0,0,0,0,0,0
835,1.4235551,-0.9270772,-0.091860846,-0.0068280785,-0.014361362,-0.021885324,0.45819035,8.011298,5.1719246,0,0,0,0,0,0,0,0,0,0,0,0,0,0,0,0,0,0,0,0,0
836,1.4246528,-0.9260643,-0.08914428,-0.06648289,0.01013972,-0.041060086,0.29777884,8.086716,5.6196404,0,0,0,0,0,0,0,0,0,0,0,0,0,0,0,0,0,0,0,0,0
837,1.4235927,-0.9248449,-0.09355145,-0.051569186,-0.1720205,0.023921045,0.30974984,8.105869,5.8339214,0,0,0,0,0,0,0,0,0,0,0,0,0,0,0,0,0,0,0,0,0
838,1.4169642,-0.92570394,-0.10257366,-0.0121544,-0.20930475,0.00581155,0.75507134,7.939472,5.1360116,0,0,0,0,0,0,0,0,0,0,0,0,0,0,0,0,0,0,0,0,0
